t,ax,ay,az,gx,gy,gz
0.0,0.08005370944738388,-0.05163490027189255,9.816028594970703,0.0010257596150040627,-0.0012191826244816184,-0.0014589941129088402
0.0019983360000000003,0.07402697950601578,-0.0574784092605114,9.812368392944336,0.0003153802244924009,0.0003676608903333545,-0.0022298977710306644
0.004000256000000001,0.06944067031145096,-0.06471296399831772,9.812058448791504,2.4302767087647226e-06,0.0014777781907469034,0.00036674615694209933
0.006000128,0.06607253104448318,-0.07014787197113037,9.816370964050293,-0.00012362279812805355,0.0018743675900623202,0.0020162363070994616
0.008011520000000001,0.062388669699430466,-0.07082796841859818,9.824151039123535,-0.00012863415759056807,0.000611186376772821,0.00036282994551584125
0.010004224,0.060515739023685455,-0.06880567222833633,9.817584037780762,5.916532609262504e-05,-5.305252852849662e-05,0.0056436145678162575
0.012005376,0.06007428094744682,-0.0693008303642273,9.808574676513672,0.0004013384459540248,-0.0011575828539207578,0.008020794950425625
0.014006272,0.060762014240026474,-0.07102309167385101,9.802172660827637,0.00031623319955542684,-0.0009577380842529237,0.01313974428921938
0.016009216,0.06183503195643425,-0.07304196059703827,9.797662734985352,0.00040618889033794403,-0.0009064822806976736,0.014489131048321724
0.018008576000000002,0.06404030323028564,-0.07253595441579819,9.797270774841309,0.0009645299869589508,-0.001481050392612815,0.014756480231881142
0.020008448,0.06727556884288788,-0.069523885846138,9.802218437194824,0.0019401039462536573,-0.000724296027328819,0.011227563954889774
0.022007808,0.06679742783308029,-0.06495678424835205,9.806638717651367,0.0014934521168470383,0.0014032390899956226,0.001676232204772532
0.024010752,0.0657900869846344,-0.059831880033016205,9.808841705322266,0.0017036768840625882,0.001949630561284721,-0.0030112839303910732
0.026009856,0.06252323091030121,-0.058841459453105927,9.805643081665039,0.001300374511629343,0.0017496575601398945,0.0038317041471600533
0.028012544,0.05956151708960533,-0.05958057567477226,9.806397438049316,-0.00019501209317240864,0.0022084356751292944,0.004624056629836559
0.030013440000000002,0.06052863597869873,-0.058091238141059875,9.815413475036621,-0.0009499358129687607,-6.535531429108232e-05,0.0022618465591222048
0.032014592,0.05785328149795532,-0.06371747702360153,9.811988830566406,-0.0013514298480004072,-0.0018865404417738318,0.0032587777823209763
0.034016000000000005,0.054288625717163086,-0.07487726956605911,9.805093765258789,-0.0010274202795699239,-0.0014250918757170439,0.006271923892199993
0.036017664000000005,0.0526420883834362,-0.08547522127628326,9.801299095153809,-0.0006325982394628227,-0.0018180098850280046,0.008334257639944553
0.038016,0.05468173697590828,-0.09118854254484177,9.804816246032715,1.0246971214655787e-05,-0.0005793754826299846,0.007383753079921007
0.040019968,0.05852657929062843,-0.09030254930257797,9.807119369506836,-0.0002732197754085064,0.0006636522011831403,0.005436795298010111
0.042020352000000004,0.061016008257865906,-0.08563556522130966,9.807929992675781,-0.00037040974711999297,0.0003821782302111387,0.008192706853151321
0.044022016000000004,0.05939295515418053,-0.07937492430210114,9.80418872833252,-0.00033002643613144755,-0.0007251512142829597,0.005644536577165127
0.046019840000000006,0.062071360647678375,-0.07281764596700668,9.7969388961792,-0.0008499825489707291,-0.0011906949803233147,0.003656342625617981
0.048021248,0.06669066846370697,-0.06936060637235641,9.79874324798584,0.00019004759087692946,-0.0005466049769893289,0.0009706558776088059
0.050021632,0.07203645259141922,-0.06390093266963959,9.817873001098633,0.0004473439184948802,-8.794137102086097e-05,-0.0011930583277717233
0.052022784,0.07233794778585434,-0.059580449014902115,9.828947067260742,0.0006503522163257003,0.00030737853376194835,0.0024098267313092947
0.054021888000000004,0.07035831362009048,-0.055827170610427856,9.833776473999023,-0.00013142326497472823,-0.0009993496350944042,0.00686690816655755
0.05602432,0.06916002184152603,-0.05413318797945976,9.832477569580078,-0.0001594022469362244,-0.000311615556711331,0.0008983573061414063
0.058024704,0.07111721485853195,-0.05531986802816391,9.823075294494629,0.0013583509717136621,-0.0005736523307859898,-0.002640701597556472
0.06013824,0.07204150408506393,-0.05761595815420151,9.81104850769043,9.827494795899838e-05,0.00020299213065300137,0.0030688645783811808
0.062139904,0.0741993635892868,-0.06874926388263702,9.795281410217285,-0.00019395457638893276,-0.0006701842648908496,0.003347656922414899
0.06414156800000001,0.07278996706008911,-0.07067634165287018,9.791167259216309,0.0006719384109601378,-0.001836997689679265,2.91750311589567e-05
0.066141184,0.07448377460241318,-0.07006826996803284,9.791741371154785,0.00010329766519134864,-0.0009966616053134203,0.003520277561619878
0.068143616,0.07445261627435684,-0.07453690469264984,9.799976348876953,-0.00032600577105768025,-0.0009968540398404002,0.0016854110872372985
0.07014553600000001,0.06946363300085068,-0.06844598799943924,9.807168006896973,-0.0012623725924640894,-1.58491893671453e-05,0.002290634671226144
0.07214720000000001,0.05988117307424545,-0.05793128162622452,9.810704231262207,-0.0006298400112427771,-0.000655418902169913,0.00453623803332448
0.074147584,0.05486747622489929,-0.05457582697272301,9.803141593933105,0.0006025663460604846,0.00012545828940346837,0.006127999629825354
0.0761472,0.05643768608570099,-0.05689617618918419,9.800025939941406,0.0003407605108805001,-0.00010462833597557619,-0.002289263065904379
0.07814860800000001,0.058059144765138626,-0.05913620442152023,9.799399375915527,-3.824891973636113e-05,-0.0007895969320088625,0.0029063578695058823
0.080150528,0.057338468730449677,-0.057467177510261536,9.8072509765625,-0.0003979023895226419,-0.0007310918881557882,0.007097841706126928
0.08215193600000001,0.05783412232995033,-0.057919397950172424,9.820691108703613,-0.0010956142796203494,-0.00015210817218758166,0.011880346573889256
0.084151296,0.060633912682533264,-0.06011902540922165,9.839376449584961,-0.0009993009734898806,0.0006025448092259467,0.007283365819603205
0.086152448,0.06509409099817276,-0.05950510501861572,9.86060619354248,-0.0005409311270341277,0.0003193979791831225,0.005122215952724218
0.08815334400000001,0.07259640097618103,-0.05779349431395531,9.881901741027832,0.00028546040994115174,-4.707558036898263e-05,0.006686014123260975
0.090155264,0.07932340353727341,-0.05657516047358513,9.891341209411621,-0.0003170733107253909,-0.0015824174042791128,0.002811451442539692
0.092155648,0.08073346316814423,-0.05756107345223427,9.879227638244629,-0.002274323021993041,-0.0015240159118548036,0.000920743856113404
0.094158592,0.07951068133115768,-0.05810040235519409,9.87001895904541,-0.0019614461343735456,0.0001816875592339784,0.00202759075909853
0.09615820800000001,0.08523374050855637,-0.05464752018451691,9.859437942504883,-0.0008679074817337096,0.000683766498696059,0.00046158043551258743
0.098158848,0.09313978254795074,-0.04996040463447571,9.849609375,-0.00019194060587324202,0.0010561852250248194,-0.0073005203157663345
0.100159232,0.08983439207077026,-0.048604123294353485,9.837079048156738,-3.2640415156492963e-05,0.001811467343941331,-0.0001583421544637531
0.10216140800000001,0.08079809695482254,-0.04314620420336723,9.821683883666992,0.0011822469532489777,0.0009936945280060172,-0.0012624908704310656
0.104162816,0.0724671334028244,-0.040165334939956665,9.822236061096191,0.0016613489715382457,0.0006171591812744737,-0.003323323791846633
0.10616320000000001,0.06650896370410919,-0.041343457996845245,9.8299560546875,0.0010097756749019027,0.0010005523217841983,0.0033412117045372725
0.10816358400000001,0.06588954478502274,-0.04565266892313957,9.834783554077148,-0.0009445407195016742,0.0004965187981724739,0.005788889247924089
0.11016550400000001,0.06336192041635513,-0.049247946590185165,9.836996078491211,-0.0013020264450460672,0.0005788184935227036,0.0007863790378905833
0.11216716800000001,0.065416619181633,-0.060785047709941864,9.834842681884766,-0.00047892218572087586,0.0008470808388665318,0.0026868456043303013
0.11416806400000001,0.06901632994413376,-0.07432032376527786,9.83400821685791,0.0003584348305594176,-0.00022562677622772753,0.007431606762111187
0.11616947200000001,0.06972983479499817,-0.07885896414518356,9.833020210266113,0.0003825928724836558,-0.0020056513603776693,0.0030801622197031975
0.118171648,0.07659444212913513,-0.07502467185258865,9.834624290466309,-0.0005968541954644024,-0.0008600018336437643,0.0025331517681479454
0.12017203200000001,0.08605895191431046,-0.06882579624652863,9.83598804473877,-0.0004797331930603832,0.0016194445779547095,0.0036110724322497845
0.12217548800000001,0.08950498700141907,-0.06075035780668259,9.8341646194458,0.0002282468631165102,0.001794167677871883,0.0013255664380267262
0.12417664,0.0879485234618187,-0.05899159237742424,9.823498725891113,0.0002705476654227823,-0.00014949303294997662,0.0016768460627645254
0.126177792,0.08463328331708908,-0.06134454905986786,9.80780029296875,-6.727227446390316e-05,-0.0002819714427459985,-0.0014694069977849722
0.128178688,0.07888100296258926,-0.060045771300792694,9.795705795288086,0.0003660799702629447,-7.250635826494545e-05,-0.0011374433524906635
0.13017856,0.07584278285503387,-0.06374749541282654,9.77894115447998,0.000595803081523627,0.0007307583000510931,-2.8150705475127324e-05
0.132180992,0.07283516973257065,-0.058263685554265976,9.77080249786377,0.0010448640678077936,-0.0006857689004391432,-0.003266921965405345
0.13417932800000001,0.0699009820818901,-0.057696886360645294,9.772706031799316,0.0013271570205688477,-0.0014569915365427732,0.0007815186982043087
0.13618048000000002,0.07371438294649124,-0.05683105066418648,9.77595329284668,0.0014611948281526566,-0.00029834575252607465,0.005102817434817553
0.13818112000000002,0.07313903421163559,-0.05402647703886032,9.781275749206543,-0.00047968263970687985,-0.002057422650977969,0.004099315498024225
0.14018355200000002,0.07346169650554657,-0.05172918736934662,9.787275314331055,-0.001261262921616435,-0.0021297831553965807,0.0017813541926443577
0.142183936,0.0709376260638237,-0.053981583565473557,9.79605770111084,-0.0006370242335833609,-0.0022054826840758324,0.00229112571105361
0.144186368,0.06759653240442276,-0.0619070790708065,9.809027671813965,0.0005105966702103615,-0.0021947307977825403,-0.0010686538880690932
0.14618777600000002,0.0662154033780098,-0.06519908457994461,9.815145492553711,0.0011414719047024846,-0.0011644475162029266,0.0015413203509524465
0.14818841600000002,0.06570488959550858,-0.0702640563249588,9.815606117248535,0.0010142396204173565,5.986950054648332e-05,0.0027833415661007166
0.150188288,0.06645824760198593,-0.07126561552286148,9.822232246398926,0.0010503658559173346,-0.00047775445273146033,0.0026938659138977528
0.152192768,0.06514979153871536,-0.0676003098487854,9.82999324798584,-0.0002911119081545621,-0.0015034953830763698,0.0036657971795648336
0.15419059200000002,0.06581681221723557,-0.06607909500598907,9.837820053100586,0.0002067068126052618,-0.0013450667029246688,0.0009947266662493348
0.156192256,0.06839583814144135,-0.0664018914103508,9.83800983428955,0.0004325685149524361,-0.0020258529111742973,0.0007292224327102304
0.158193152,0.06923720240592957,-0.06724856048822403,9.8423490524292,0.0003345389850437641,-0.001578846713528037,-0.00044164221617393196
0.16019456,0.07159680873155594,-0.06799379736185074,9.845356941223145,-0.00032438678317703307,-0.00032276258571073413,0.0012322204420343041
0.162294016,0.07190880179405212,-0.06696740537881851,9.845491409301758,-0.00115322379861027,0.0007594140479341149,0.0037448941729962826
0.16429337600000002,0.06771200150251389,-0.0616271011531353,9.844401359558105,0.0007415905129164457,0.0017600276041775942,0.0006807816098444164
0.166295296,0.06209326907992363,-0.06288786232471466,9.83513355255127,0.0020676893182098866,0.0002623106411192566,-0.0013840661849826574
0.16829670400000002,0.05424688011407852,-0.06308752298355103,9.821709632873535,0.0021823092829436064,-0.0007385716889984906,0.001606671721674502
0.17029734400000002,0.04597680643200874,-0.061866581439971924,9.809423446655273,0.0008997409022413194,-0.0017903759144246578,0.008429700508713722
0.17229824000000002,0.042890749871730804,-0.06164722144603729,9.804915428161621,-0.00020653799583669752,-0.0005286048399284482,0.005424153059720993
0.17429913600000002,0.04261051118373871,-0.06666789948940277,9.803694725036621,-0.0007765420596115291,3.769614704651758e-05,0.0007930685533210635
0.17629952000000002,0.04488768056035042,-0.06713594496250153,9.803079605102539,-0.0009500389569438994,0.000367446948075667,0.001428765943273902
0.17830041600000002,0.04741288349032402,-0.06552005559206009,9.797872543334961,-0.0001304469769820571,0.0008958358084782958,-0.002323136432096362
0.18030105600000002,0.05460350960493088,-0.0651191920042038,9.795429229736328,0.00034090597182512283,0.00016630874597467482,-0.0007237535319291055
0.18230220800000002,0.06371737271547318,-0.06855189055204391,9.803985595703125,0.0005437194486148655,3.132299389108084e-05,0.0017986841266974807
0.18430310400000002,0.07010827213525772,-0.07302466034889221,9.814213752746582,0.0007166069699451327,0.0005917521775700152,0.004450717940926552
0.186305024,0.06855138391256332,-0.07654078304767609,9.810332298278809,0.0006325660506263375,8.944170258473605e-05,0.005836428143084049
0.188305408,0.06554152071475983,-0.07755853235721588,9.804832458496094,0.0006610049749724567,-0.000526901101693511,0.004164058715105057
0.19030681600000002,0.06472469866275787,-0.07192955166101456,9.809677124023438,0.0009308973676525056,-0.0009419337147846818,-0.00022516776516567916
0.19230924800000002,0.06268586963415146,-0.06497220695018768,9.824569702148438,-2.8067122912034392e-05,-0.0016046710079535842,-0.00041085222619585693
0.19430912,0.06237543746829033,-0.06352142244577408,9.829729080200195,-0.0009483784670010209,0.0002648330701049417,0.006434319540858269
0.196310528,0.062118049710989,-0.05859707295894623,9.82536506652832,-0.00013552552263718098,0.0014656349085271358,0.004408929497003555
0.19831014400000002,0.0617704801261425,-0.053621865808963776,9.821878433227539,0.0007349449442699552,5.243763007456437e-05,0.002319753635674715
0.200311296,0.0604122057557106,-0.050118930637836456,9.818891525268555,0.0011528430040925741,0.0008567452896386385,0.0035316043067723513
0.202312448,0.05168000981211662,-0.04897633567452431,9.811914443969727,0.0005777257611043751,0.0012889670906588435,0.003986603580415249
0.20431232000000002,0.04931008443236351,-0.0480407178401947,9.80282211303711,5.889931708225049e-05,-0.0009903586469590664,0.005304666236042976
0.206312448,0.05437253415584564,-0.04523187130689621,9.79382610321045,0.0005746838869526982,-0.0013984728138893843,0.003168670693412423
0.20831206400000002,0.05567339435219765,-0.04199276119470596,9.798871994018555,0.0024029980413615704,-0.0017776844324544072,0.005422771908342838
0.21031500800000003,0.056458763778209686,-0.04057306796312332,9.797733306884766,0.002584669040516019,-0.0024483681190758944,0.004300259985029697
0.21231539200000002,0.05852680280804634,-0.039740629494190216,9.789283752441406,0.0013825830537825823,-0.0008760824566707015,-0.0015373241622000933
0.21431628800000002,0.06285887211561203,-0.04052773490548134,9.78432846069336,0.00014012286555953324,-0.00010967936395900324,0.003124573500826955
0.21631616,0.062942273914814,-0.045062217861413956,9.782082557678223,-0.00039386661956086755,-0.0012186267413198948,0.0034541282802820206
0.218316544,0.05809304863214493,-0.04970724135637283,9.77822494506836,-8.588987111579627e-05,-0.002599221421405673,-0.000800594047177583
0.22031641600000001,0.05533318221569061,-0.050965871661901474,9.78276252746582,0.0005408463184721768,-0.0009414702071808279,-0.001183207961730659
0.22231731200000002,0.05640802159905434,-0.05153491720557213,9.785513877868652,0.00028886584914289415,-0.0011477988446131349,-0.0004076980403624475
0.224319232,0.05698857828974724,-0.052514590322971344,9.794706344604492,-0.00040112045826390386,-0.00045084740850143135,0.002160358242690563
0.22633702400000003,0.052484288811683655,-0.0521012581884861,9.808320999145508,0.00025429201195947826,-0.0010706105967983603,0.0006128941313363612
0.22833920000000002,0.05436153709888458,-0.0503203384578228,9.818464279174805,0.0003942607145290822,-0.0008786345715634525,0.00019335621618665755
0.23034009600000002,0.06015342101454735,-0.052654266357421875,9.828551292419434,-0.0001274606038350612,-0.0008964717853814363,0.0019409749656915665
0.23234304,0.0651884600520134,-0.054604671895504,9.836064338684082,-3.275438575656153e-05,0.0005151372752152383,0.0022759102284908295
0.2343424,0.06622916460037231,-0.04765644669532776,9.835102081298828,-0.00016139120270963758,0.0015664364909753203,-0.00017901728278957307
0.236343296,0.06570591777563095,-0.04517557844519615,9.826885223388672,-0.0006272202008403838,0.000675570743624121,-0.002136152470484376
0.23834444800000001,0.0662539154291153,-0.048077020794153214,9.816722869873047,-0.001411310862749815,0.0004414198047015816,-0.003935276065021753
0.240345088,0.06817428767681122,-0.05256578326225281,9.812090873718262,-0.0015803348505869508,-0.0004727969935629517,-0.0008080970728769898
0.242347264,0.07411148399114609,-0.060334835201501846,9.80058765411377,-0.00044755585258826613,-9.6296971605625e-05,0.0012688838178291917
0.244348416,0.07743377983570099,-0.06676524877548218,9.797598838806152,0.0003813240327872336,-0.0008147160988301039,0.0019480529008433223
0.246350336,0.08007902652025223,-0.07303360849618912,9.800930976867676,0.0007715422543697059,9.992026025429368e-05,0.0032515001948922873
0.24835020800000002,0.07941262423992157,-0.07688561826944351,9.79796314239502,0.00022951762366574258,0.0006213712622411549,0.003176688449457288
0.250350336,0.07578571140766144,-0.07426215708255768,9.79481315612793,0.00018259989155922085,0.0002937291865237057,0.004997277166694403
0.252349952,0.06753244251012802,-0.07647261023521423,9.792464256286621,0.0012359492247924209,-0.0009496296406723559,0.0035722984466701746
0.254352128,0.05890312045812607,-0.0796302780508995,9.792150497436523,0.0020219101570546627,-0.0015636058524250984,-0.0021019051782786846
0.256360704,0.058628637343645096,-0.0807848796248436,9.792533874511719,0.0019900337792932987,-0.001870370702818036,-0.0012511048698797822
0.25836211200000003,0.061008863151073456,-0.07606218010187149,9.791467666625977,0.0010174697963520885,-0.002625303342938423,-0.0011508705792948604
0.26036224,0.06558997184038162,-0.07067811489105225,9.790637016296387,0.001044740085490048,-0.003257513977587223,0.001208151807077229
0.26244480000000003,0.06995902955532074,-0.06856991350650787,9.795063972473145,0.0017253364203497767,-0.0009499507141299546,0.0033557419665157795
0.264448,0.07321611046791077,-0.06749791651964188,9.802560806274414,0.0025365527253597975,0.0009529668022878468,0.011045482009649277
0.266449408,0.07357380539178848,-0.06422828882932663,9.809109687805176,0.0030071050859987736,0.001878591370768845,0.012720824219286442
0.268446976,0.06810734421014786,-0.05422026664018631,9.811535835266113,0.002258824184536934,0.0017528716707602143,0.011424017138779163
0.27044787200000003,0.06244072690606117,-0.04838678985834122,9.813234329223633,0.0016251287888735533,0.0007369813392870128,0.00105861050542444
0.27245209600000003,0.0622980110347271,-0.04644569009542465,9.802202224731445,0.0014423495158553123,7.117140921764076e-05,-0.000545827264431864
0.274450176,0.06200126186013222,-0.048766981810331345,9.788741111755371,0.0011488886084407568,0.0008163283346220851,0.00035441573709249496
0.27645081600000004,0.06010518968105316,-0.054303668439388275,9.775518417358398,0.00046648355782963336,0.002045008121058345,0.004860538057982922
0.27845273600000003,0.059553761035203934,-0.057836901396512985,9.768447875976562,-0.0009355800575576723,0.000683688442222774,0.00272945873439312
0.280455936,0.06000134348869324,-0.060258567333221436,9.771334648132324,-0.0022043997887521982,6.961747567402199e-05,0.004560720641165972
0.282458368,0.06133732944726944,-0.05983185023069382,9.772865295410156,-0.002131519839167595,0.00010509957792237401,0.001687062787823379
0.284459776,0.0656072124838829,-0.05755780637264252,9.782532691955566,-0.0019530713325366378,0.0003917332796845585,0.0015880819410085678
0.286461952,0.06730808317661285,-0.05427709221839905,9.789138793945312,-0.0015187808312475681,-0.0006161193014122546,0.0033368703443557024
0.28846208,0.07098256796598434,-0.05270653963088989,9.790492057800293,-0.0012265356490388513,-0.001813840470276773,0.0031625416595488787
0.29046297600000004,0.07272287458181381,-0.05067718029022217,9.789172172546387,-0.0011699538445100188,-0.002199206268414855,-0.0011764814844354987
0.292463872,0.0751970112323761,-0.05062565207481384,9.796036720275879,-0.0004476103640627116,-0.0019617180805653334,0.00121464638505131
0.294465792,0.07291290909051895,-0.05512755364179611,9.803457260131836,0.0011012258473783731,-0.0013358552241697907,0.0022038875613361597
0.296466944,0.07039004564285278,-0.05777120962738991,9.815119743347168,0.0013398537412285805,-0.002489208010956645,0.0030255657620728016
0.298468096,0.06891699880361557,-0.05823633074760437,9.828522682189941,0.0011731635313481092,-0.0037502150516957045,0.007715446408838034
0.300471296,0.06998901069164276,-0.052447360008955,9.836647987365723,0.0003358215617481619,-0.0016978393541648984,0.007102534640580416
0.30247091200000004,0.07338706403970718,-0.04730721935629845,9.832823753356934,-0.0002020742540480569,0.00010543916869210079,0.0041704075410962105
0.304471808,0.07940743118524551,-0.04403427988290787,9.82555103302002,-2.1866879251319915e-05,-0.00025947255198843777,0.0034646654967218637
0.306474752,0.08285247534513474,-0.04461023211479187,9.810397148132324,0.00019046598754357547,-0.0008363189990632236,0.006564178038388491
0.30847488,0.08255259692668915,-0.047416865825653076,9.799901008605957,0.00011145086318720132,-0.0020115948282182217,0.007854357361793518
0.310475008,0.08300641924142838,-0.05332950875163078,9.804296493530273,0.00031801380100660026,0.0002693114220164716,0.006365971639752388
0.312477184,0.08227206021547318,-0.058406222611665726,9.798477172851562,-0.00012154293654020876,0.0006831284845247865,0.001814708928577602
0.31447936000000004,0.07515400648117065,-0.05472675338387489,9.788863182067871,-0.0009560439502820373,0.0011587381595745683,0.0017677524592727423
0.31648000000000004,0.07044588774442673,-0.05394284427165985,9.785955429077148,-0.0009333140915259719,0.0010922319488599896,0.0022912737913429737
0.31848192000000003,0.07064075767993927,-0.056233637034893036,9.780975341796875,-0.0008898643427528441,-1.594811510585714e-05,-0.00020840099023189396
0.320483328,0.07172255218029022,-0.06368046253919601,9.781268119812012,-0.00047941188677214086,-0.0013684954028576612,0.0006657297490164638
0.322485248,0.07398610562086105,-0.07080766558647156,9.794763565063477,-0.0007379981689155102,-0.002877565799281001,0.003586216364055872
0.32448614400000003,0.07645954191684723,-0.0769088864326477,9.812080383300781,-0.0008570589125156403,-0.003401236142963171,0.010821407660841942
0.326488832,0.07797364890575409,-0.0803433507680893,9.825505256652832,-6.271097663557157e-05,-0.0031828321516513824,0.01417476125061512
0.328488192,0.07742051035165787,-0.0798330157995224,9.826859474182129,-0.00031719880644232035,-0.0026615657843649387,0.008933056145906448
0.330488832,0.07427742332220078,-0.08036945015192032,9.818805694580078,-3.596895112423226e-05,-0.0007524665561504662,0.0004652435309253633
0.33248896,0.068562813103199,-0.07971765100955963,9.811023712158203,0.0002391311718383804,-9.432547813048586e-05,0.0007098253117874265
0.334491136,0.06695438176393509,-0.07591833919286728,9.809162139892578,-2.9796416129102e-05,0.0009500295855104923,0.003382962429895997
0.336492032,0.06827661395072937,-0.07520336657762527,9.81332778930664,-0.00039279492921195924,0.002138902200385928,0.0020501655526459217
0.33849395200000004,0.06674686074256897,-0.0685916468501091,9.822744369506836,-0.0008130647474899888,0.0020741992630064487,0.0010927100665867329
0.340494336,0.06314636021852493,-0.06276615709066391,9.82776927947998,0.0003215112956240773,0.0019098599441349506,-0.001103313872590661
0.342496,0.06537981331348419,-0.06195361167192459,9.82565689086914,0.001245305989868939,0.000981659977696836,0.0022331057116389275
0.34449587200000004,0.07131708413362503,-0.06405005604028702,9.819995880126953,0.0007816524594090879,0.00018968181393574923,0.010773845948278904
0.34649830400000003,0.07805707305669785,-0.06709837168455124,9.813562393188477,0.0006707071443088353,-0.0009248347487300634,0.014885804615914822
0.34849792,0.0842881053686142,-0.0701623260974884,9.807612419128418,0.0005115802050568163,-0.0006322217523120344,0.01424388401210308
0.350498048,0.09433213621377945,-0.07236851751804352,9.801648139953613,0.0013480569468811154,0.0006055199773982167,0.007308274041861296
0.352502784,0.09925217181444168,-0.07625679671764374,9.797957420349121,0.0012756119249388576,-0.0009277574717998505,-0.0020464046392589808
0.35450188800000004,0.09751430153846741,-0.0767127200961113,9.80687427520752,0.0012042354792356491,-0.0020053654443472624,-0.0026891238521784544
0.356504064,0.09261065721511841,-0.07965940982103348,9.809947967529297,0.0007959805079735816,-0.0013977163471281528,0.0047701881267130375
0.358506496,0.08676132559776306,-0.08470585197210312,9.807219505310059,8.912708835850935e-06,-0.00023666443303227425,0.01100167352706194
0.360508928,0.08014394342899323,-0.08778533339500427,9.803333282470703,0.0005297005991451442,0.0005098506808280945,0.011383648961782455
0.36263731200000004,0.07080526649951935,-0.08925552666187286,9.800124168395996,7.225365698104724e-05,0.0019662354607135057,0.010924340225756168
0.36463923200000004,0.05983858183026314,-0.09248383343219757,9.795404434204102,-0.0004134405462536961,0.002357279183343053,0.008509622886776924
0.36663987200000003,0.054844968020915985,-0.0892413854598999,9.796932220458984,-0.00017275330901611596,0.0011719056637957692,0.0043044849298894405
0.36864102400000004,0.0580439455807209,-0.08508311957120895,9.80254077911377,-0.0004362796316854656,-0.0003608595870900899,0.004702827427536249
0.370641408,0.06770161539316177,-0.08468525111675262,9.812592506408691,-0.000732592074200511,-0.0006516667199321091,0.007398966699838638
0.37264281600000004,0.07571309804916382,-0.08480128645896912,9.822872161865234,-4.713951057055965e-05,-0.0006630957941524684,0.007046946790069342
0.37464294400000003,0.07497292757034302,-0.07781936228275299,9.8397798538208,-7.128585275495425e-05,0.00042254041181877255,0.0056005786173045635
0.376644864,0.07503678649663925,-0.07660950720310211,9.8431396484375,-0.0011927321320399642,0.0005278679891489446,0.0021539449226111174
0.37864601600000003,0.07466135919094086,-0.08390059322118759,9.836374282836914,-0.000591420044656843,-0.0011398654896765947,0.0019755391404032707
0.380646144,0.07304377108812332,-0.09087875485420227,9.828993797302246,-0.000441959360614419,-0.0017757111927494407,0.003939199727028608
0.382646272,0.0686180368065834,-0.09020661562681198,9.828511238098145,-0.0003533925337251276,-0.0008364589302800596,0.0036043243017047644
0.384647936,0.06886059045791626,-0.09219184517860413,9.833852767944336,0.0006053523393347859,0.0003770951589103788,0.002276412444189191
0.38664960000000004,0.06656455248594284,-0.09021922945976257,9.833500862121582,0.0012218173360452056,0.000937804754357785,-0.003001851262524724
0.38865126400000005,0.06206732243299484,-0.08529333770275116,9.828792572021484,0.0008519492112100124,0.001637547160498798,-0.008953901939094067
0.39065216,0.05913667008280754,-0.08167374134063721,9.821413040161133,-0.00012450944632291794,-0.00018352697952650487,-0.003208981128409505
0.39265561600000004,0.05355538800358772,-0.07497989386320114,9.819548606872559,-0.0018241050420328975,-0.0005512143834494054,-0.0017812055302783847
0.39465446400000004,0.055031806230545044,-0.06653383374214172,9.821905136108398,-0.0016832194523885846,-7.930656283861026e-05,0.002029773313552141
0.39665612800000005,0.05757551267743111,-0.05929019674658775,9.824203491210938,0.0003015294496435672,-0.0002696835726965219,0.0019783631432801485
0.39865753600000003,0.0603029690682888,-0.0580742321908474,9.841583251953125,0.002111152745783329,-0.0005755613674409688,0.0002952580980490893
0.40065817600000003,0.062147464603185654,-0.05752513185143471,9.847916603088379,-0.00037676122155971825,0.00034359373967163265,0.0028892140835523605
0.402661888,0.062251172959804535,-0.05248775705695152,9.84019660949707,-0.0026554784271866083,0.0008621064480394125,0.0018605547957122326
0.40466048000000004,0.06221914663910866,-0.04776404798030853,9.833657264709473,8.504787729179952e-06,0.0009408353944309056,0.003154102247208357
0.406661376,0.06688772886991501,-0.045811329036951065,9.819146156311035,0.00228601461276412,0.0006879860302433372,-0.0019513372099027038
0.40866124800000003,0.07320476323366165,-0.04866652190685272,9.804226875305176,0.001679972163401544,-0.00011829584400402382,-0.00033595491549931467
0.41066240000000004,0.07309627532958984,-0.04802529513835907,9.794227600097656,4.999382872483693e-05,-0.000416471972130239,0.0019212719053030014
0.41266227200000005,0.07049327343702316,-0.05122731626033783,9.799174308776855,-0.00022782603628002107,-0.00031726062297821045,0.00029404801898635924
0.414663168,0.0682806596159935,-0.05473107844591141,9.810065269470215,-0.00043738525710068643,0.00019426719518378377,-0.0010701013961806893
0.416664064,0.06789448112249374,-0.05385918170213699,9.820687294006348,-0.00025525852106511593,-0.00013909663539379835,-0.0024436430539935827
0.41866598400000005,0.0696716234087944,-0.0543077327311039,9.825631141662598,0.0009132548584602773,0.00045150372898206115,0.0015194449806585908
0.420667648,0.07740718126296997,-0.056450676172971725,9.823033332824707,0.0009176380699500442,6.978751480346546e-05,0.0007665794109925628
0.42266956800000005,0.08436911553144455,-0.06407657265663147,9.822185516357422,4.378946323413402e-05,-0.0010440951446071267,0.0013339235447347164
0.42467020800000005,0.08945433795452118,-0.0690528154373169,9.821745872497559,7.653768079762813e-06,-0.001095605199225247,-0.00040339192491956055
0.426671872,0.08927889168262482,-0.07175261527299881,9.8211030960083,0.0008748208056204021,-0.0008084753644652665,0.0005295085720717907
0.42867200000000005,0.08690518885850906,-0.06687524914741516,9.82154655456543,0.0011031234171241522,-0.0012332018231973052,0.00151348696090281
0.43067699200000004,0.08295981585979462,-0.0634957104921341,9.820836067199707,0.00024738317006267607,5.3321859013522044e-05,-0.0009474848047830164
0.432674304,0.07954984158277512,-0.06165368854999542,9.814797401428223,-0.00037730098119936883,0.0006467498606070876,0.0001822682679630816
0.434675456,0.07381341606378555,-0.05810555815696716,9.808018684387207,-0.000603196385782212,0.00143315433524549,0.0017686733044683933
0.43667507200000005,0.0687711089849472,-0.05114666000008583,9.796622276306152,-0.0007904520607553422,0.0013734545791521668,0.002270418219268322
0.43867648000000004,0.0670529380440712,-0.0503634512424469,9.787128448486328,0.0009868619963526726,0.0016824103659018874,0.0020384362433105707
0.440677376,0.06801363825798035,-0.048156630247831345,9.780693054199219,0.0015161351766437292,0.0017158898990601301,0.00044178575626574457
0.442679296,0.06751128286123276,-0.04549300670623779,9.782357215881348,-4.485774115892127e-05,0.002269941382110119,-0.00023140996927395463
0.44467814400000005,0.06319353729486465,-0.043845463544130325,9.78880786895752,-0.00046978567843325436,0.0012309731682762504,-0.0030210930854082108
0.446681088,0.06836237013339996,-0.04498608037829399,9.796622276306152,-0.0005699745379388332,-0.00014999814447946846,-0.0027774216141551733
0.448681728,0.07709083706140518,-0.04596546292304993,9.801283836364746,-0.001059401547536254,0.0006424869643524289,0.00040559162152931094
0.45068313600000004,0.08228974044322968,-0.043016646057367325,9.797119140625,-0.001616471679881215,0.0014817232731729746,-0.0012399120023474097
0.45268556800000004,0.08531730622053146,-0.041377369314432144,9.79127311706543,-0.0014074068749323487,0.0028685384895652533,0.0014037457294762135
0.454684672,0.08788999915122986,-0.045015037059783936,9.781620025634766,-0.0008617578423582017,0.002529151039198041,0.0030414913780987263
0.456685312,0.08829192072153091,-0.046755414456129074,9.780540466308594,-0.0007269211346283555,0.0023637982085347176,-0.00020007062994409353
0.458685952,0.08370275795459747,-0.04471855238080025,9.784306526184082,0.000235207102377899,0.0013057528994977474,-0.0022627769503742456
0.46068915200000005,0.07982327044010162,-0.0369453951716423,9.798398971557617,0.0016741249710321426,0.0017357885371893644,-0.0038420145865529776
0.462837504,0.07520756125450134,-0.03622135892510414,9.807137489318848,0.002353837015107274,0.0006642744410783052,0.000553182908333838
0.46483840000000004,0.07214269787073135,-0.04566429555416107,9.799083709716797,0.0014312125276774168,-0.0004645894805435091,0.006853617262095213
0.4668416,0.07303512841463089,-0.05818886682391167,9.787394523620605,0.0006744490237906575,-0.00040014582918956876,0.006563335657119751
0.46884249600000005,0.08045216649770737,-0.06752394139766693,9.783126831054688,0.0012241312069818377,0.00015741765673737973,0.0008520266273990273
0.470843392,0.08966419845819473,-0.07435845583677292,9.782491683959961,0.002130565932020545,0.0010108116548508406,-0.013418976217508316
0.47284454400000003,0.09847195446491241,-0.0792931541800499,9.783452987670898,0.0019140319200232625,0.000889098912011832,-0.015261382795870304
0.47484441600000005,0.10600793361663818,-0.08281676471233368,9.784960746765137,0.0016095084138214588,0.0005772727890871465,-0.008672180585563183
0.476847104,0.10515682399272919,-0.08181990683078766,9.781932830810547,0.0013113678433001041,-0.0001631654886296019,-0.0001888541446533054
0.47884876800000004,0.1006714478135109,-0.083387091755867,9.77531623840332,0.0006147715612314641,-0.00014850895968265831,0.0025222101248800755
0.48084940800000003,0.0946110412478447,-0.08048554509878159,9.772347450256348,0.00030272736330516636,0.00020046981808263808,0.0005196832353249192
0.48285158400000006,0.08946575969457626,-0.07723289728164673,9.76591968536377,0.0007435528677888215,-1.599496499693487e-05,0.0003311833133921027
0.484851456,0.08160003274679184,-0.07758668065071106,9.768819808959961,0.0003640694485511631,0.00019408306980039924,0.0002774747263174504
0.486852096,0.07307624071836472,-0.08402455598115921,9.777488708496094,-0.00037389047793112695,0.0006567291566170752,0.0014426631387323141
0.48885350400000005,0.0735631138086319,-0.09030640125274658,9.788043022155762,-2.6196481485385448e-05,0.0009949497180059552,0.003045161720365286
0.490856192,0.0704398825764656,-0.09204495698213577,9.79461669921875,-0.0004587132134474814,-0.00011203403846593574,0.0032982744742184877
0.49285836800000005,0.06645036488771439,-0.094722680747509,9.800666809082031,0.0006037828279659152,-0.0001613907952560112,0.0008335383608937263
0.49485619200000003,0.06607472896575928,-0.09142937511205673,9.806511878967285,0.0023410150315612555,-4.804470154340379e-05,0.0017567891627550125
0.49685836800000005,0.06899002194404602,-0.08755279332399368,9.814000129699707,0.0006594680598936975,-0.00022218073718249798,0.0028418146539479494
0.49885900800000005,0.07600315660238266,-0.08590146899223328,9.815927505493164,0.0008001496316865087,0.00018368127348367125,0.00028584638494066894
0.500859648,0.08339491486549377,-0.0831771045923233,9.820134162902832,0.001499891048297286,-0.00019214660278521478,0.0023116739466786385
0.502860288,0.08347970247268677,-0.07739034295082092,9.814655303955078,0.0016876512672752142,-0.0006519744056276977,0.002272605197504163
0.504861184,0.08071884512901306,-0.06715269386768341,9.814523696899414,0.0017922038678079844,-0.00010296713298885152,0.0012840644922107458
0.506864128,0.07737664133310318,-0.05638721212744713,9.811666488647461,0.0012572502018883824,0.000559302163310349,0.0005888312589377165
0.508864768,0.0761609822511673,-0.047183360904455185,9.804173469543457,0.0003070188977289945,0.000987766426987946,0.00258943485096097
0.510865408,0.07834705710411072,-0.04439419507980347,9.793802261352539,-0.0003317684167996049,0.0016566157573834062,0.003038185415789485
0.512868864,0.07814959436655045,-0.04838896542787552,9.78844165802002,0.0005458953673951328,0.0010790302185341716,0.000650961825158447
0.514866432,0.07726821303367615,-0.05229426547884941,9.78050422668457,0.00039475804078392684,-6.73001995892264e-05,0.0014947379240766168
0.516867328,0.08101600408554077,-0.05756991729140282,9.772069931030273,-0.000569978728890419,-0.0002839307126123458,-0.003506443230435252
0.5188684800000001,0.08622699230909348,-0.0627569779753685,9.764483451843262,-0.00026650706422515213,-0.00012458040146157146,-0.004137150011956692
0.520870912,0.08851276338100433,-0.06245167553424835,9.764450073242188,0.00010176727664656937,-0.0006147717358544469,-0.002686614403501153
0.5228733440000001,0.08857662230730057,-0.05870092287659645,9.769121170043945,0.0002892968477681279,-0.0004566562711261213,-0.006324770860373974
0.524872448,0.08289910852909088,-0.058787304908037186,9.783822059631348,2.9152934075682424e-05,-0.0006274922634474933,-0.006998585537075996
0.526874368,0.07434495538473129,-0.06165554001927376,9.803011894226074,-0.0006160079501569271,-0.001404502079822123,-0.00024787240545265377
0.528873728,0.07191570103168488,-0.058854423463344574,9.81210708618164,-1.6598480215179734e-05,-0.0013637127121910453,0.007022906094789505
0.530877696,0.07053310424089432,-0.05439314618706703,9.810670852661133,-3.911825842806138e-05,-0.0006192710134200752,0.007858620025217533
0.53288192,0.0648314505815506,-0.05664469674229622,9.799721717834473,-0.000907313369680196,-0.001340690883807838,0.006118117831647396
0.534882048,0.06297841668128967,-0.06260319799184799,9.795679092407227,-0.0009170081466436386,-0.0007798513979651034,-0.0014062095433473587
0.5368832,0.059706348925828934,-0.06299643963575363,9.79824447631836,-0.0007647207821719348,-0.0005004857084713876,0.0009014108218252659
0.538883328,0.05602202191948891,-0.058027345687150955,9.799521446228027,-0.00014617008855566382,-1.5032002920634113e-05,0.004360373597592115
0.54088448,0.05445149913430214,-0.05570618808269501,9.802617073059082,0.00022784812608733773,0.00029766783700324595,0.00011854166223201901
0.54288512,0.056571345776319504,-0.05555656924843788,9.811010360717773,0.0005611744709312916,0.00040830104262568057,-0.004362564999610186
0.5448872960000001,0.0603349395096302,-0.05758265033364296,9.818754196166992,0.0008103115251287818,0.0007617318769916892,-0.0047470200806856155
0.54688896,0.06514415144920349,-0.0650094598531723,9.824069023132324,-1.3177210348658264e-05,0.0007818916346877813,0.002934494288638234
0.5488885760000001,0.0668247863650322,-0.06906703859567642,9.823556900024414,-0.0008925539441406727,-0.0006737461080774665,0.006954854819923639
0.550889984,0.07197896391153336,-0.06930749863386154,9.822059631347656,0.0002075854135910049,-0.0009266757406294346,0.006743342615664005
0.552893952,0.0772203654050827,-0.06456024944782257,9.818913459777832,0.0009926273487508297,-0.0009128910023719072,0.002505641896277666
0.554893824,0.08371872454881668,-0.06691201031208038,9.809896469116211,0.001002434641122818,0.00015987304504960775,0.0005677509470842779
0.5568944640000001,0.08609482645988464,-0.07299015671014786,9.799360275268555,0.0006457536946982145,0.0001826103834901005,-0.002259369008243084
0.5588953600000001,0.0881790816783905,-0.07275357097387314,9.790600776672363,0.0005558098200708628,0.0004025042580906302,-0.0003712000616360456
0.560896256,0.08471320569515228,-0.06941700726747513,9.785118103027344,0.00021288306743372232,-0.0006620515487156808,-0.004131424706429243
0.562899712,0.0773569643497467,-0.06628155708312988,9.781190872192383,-0.00018830495537258685,0.0007929999846965075,-0.0009346597944386303
0.565021184,0.06868122518062592,-0.060865409672260284,9.777704238891602,0.000384779239539057,0.0007886563544161618,0.004866919480264187
0.5670233600000001,0.06269732862710953,-0.05890524014830589,9.786128997802734,0.0006355115910992026,-2.204552583862096e-05,0.0017467578873038292
0.56902272,0.06519132852554321,-0.056821539998054504,9.79544448852539,0.0004255338863003999,-9.115185821428895e-05,0.0013225242728367448
0.571025408,0.06351358443498611,-0.057524483650922775,9.801238059997559,0.0004586925497278571,0.00023730003158561885,0.0007352000684477389
0.5730255360000001,0.058937814086675644,-0.05756755173206329,9.810097694396973,0.000773209729231894,0.00032939683296717703,-0.001107346499338746
0.575025152,0.05576663091778755,-0.05697251111268997,9.81082820892334,0.0005018972442485392,0.0016861028270795941,0.0035091678146272898
0.5770265600000001,0.054055266082286835,-0.05618559196591377,9.805813789367676,0.0003714044578373432,0.001041907467879355,-0.004388292320072651
0.579026944,0.05316764488816261,-0.05541712045669556,9.799027442932129,-0.00020175387908238918,0.0010422557825222611,-0.008684089407324791
0.581028608,0.05513797327876091,-0.05619432404637337,9.792832374572754,-0.0003413005033507943,-0.000662332633510232,-0.007599916774779558
0.58303232,0.05425252765417099,-0.05495355650782585,9.795980453491211,-0.0007481040665879846,-0.0004413512069731951,-0.0017401492223143578
0.58503168,0.053931694477796555,-0.05655280500650406,9.799456596374512,-0.0003426204202696681,0.0005033658817410469,0.0026484625414013863
0.5870330880000001,0.054839372634887695,-0.059732791036367416,9.800609588623047,-0.0005308632971718907,0.0009835270466282964,0.010853057727217674
0.58903424,0.056146252900362015,-0.06317445635795593,9.800647735595703,-0.0004025460220873356,0.0004424421349540353,0.01245341170579195
0.59103616,0.06074786186218262,-0.0673278272151947,9.80720043182373,0.0006625577807426453,0.0004141289391554892,0.01059065293520689
0.59303936,0.06474942713975906,-0.07117457687854767,9.8278169631958,0.0010249823099002242,-3.6857010854873806e-05,0.007273251190781593
0.5950394880000001,0.06694894284009933,-0.07549458742141724,9.84155559539795,0.00026916275965049863,0.0006545967771671712,-0.0008042166591621935
0.597039616,0.06847794353961945,-0.07863762229681015,9.848917007446289,-0.0010378011502325535,0.0009316014475189149,-0.008021513000130653
0.599040256,0.06953554600477219,-0.08089569956064224,9.852692604064941,-0.0016831705579534173,0.0014664873015135527,-0.011245445348322392
0.6010411520000001,0.07458912581205368,-0.08346271514892578,9.851136207580566,0.0003974782885052264,0.001697684871032834,-0.011691614054143429
0.60304512,0.08174973726272583,-0.08607538044452667,9.846713066101074,0.0023778225295245647,0.0011872908798977733,-0.009775918908417225
0.605045504,0.08889324963092804,-0.08837991952896118,9.841649055480957,0.004142941907048225,0.0007824046770110726,-0.01104271411895752
0.6070479360000001,0.0917709693312645,-0.08594200760126114,9.842717170715332,0.0016877528978511691,0.0005019699456170201,-0.0071967002004384995
0.6090483200000001,0.09382021427154541,-0.08372067660093307,9.842988014221191,0.00018394140352029353,-0.001404555980116129,-0.001565874321386218
0.611052288,0.09287824481725693,-0.07554107904434204,9.841071128845215,0.0006282015820033848,-0.001787693239748478,0.004771334119141102
0.613051648,0.0918176919221878,-0.07042354345321655,9.830901145935059,0.001120979548431933,0.00041883563972078264,0.0058500198647379875
0.615054336,0.09295415878295898,-0.06773976236581802,9.821589469909668,0.0019456753507256508,0.0009425267344340682,0.0006461829761974514
0.617055232,0.08885184675455093,-0.06641235202550888,9.820999145507812,0.001861957018263638,0.0008867266587913036,0.00341508979909122
0.6190574080000001,0.08429262787103653,-0.06737823784351349,9.82795524597168,0.0007835339638404548,-0.00024204266082961112,0.0037141668144613504
0.6210583040000001,0.07890576124191284,-0.06521257758140564,9.836823463439941,0.0006009297212585807,-0.0013060454512014985,0.0027873918879777193
0.623059456,0.07721630483865738,-0.060939088463783264,9.830244064331055,0.0002230951504316181,-0.0006299857050180435,-0.002202169969677925
0.625060096,0.07823461294174194,-0.05632081255316734,9.814349174499512,0.0005160028231330216,0.00071524124359712,-0.007065870333462954
0.6270622720000001,0.0793343186378479,-0.05757498741149902,9.804067611694336,-0.0013294863747432828,0.0028083105571568012,-0.009934946894645691
0.629063424,0.07344768941402435,-0.05411629006266594,9.798426628112793,-0.0018403984140604734,0.0020985391456633806,-0.0069418055936694145
0.6310635520000001,0.0709189921617508,-0.053461264818906784,9.800827026367188,-0.0007785420166328549,0.001669256598688662,0.0013030797708779573
0.633067264,0.07562053948640823,-0.06173519417643547,9.808797836303711,0.0012479511788114905,0.0006989366374909878,0.007863301783800125
0.635066624,0.07409274578094482,-0.06992334127426147,9.81124496459961,0.0007654104265384376,-0.001524051884189248,-0.00028756880783475935
0.637067264,0.06777416169643402,-0.07597856223583221,9.809290885925293,-0.0003977566957473755,-0.0025463311467319727,-0.005149803590029478
0.6390684160000001,0.06889726966619492,-0.07413750886917114,9.797097206115723,-0.0015553251141682267,-0.0019265826558694243,-0.0021985222119838
0.641070592,0.07320751994848251,-0.06864369660615921,9.781451225280762,-0.0014588763006031513,-0.001057061948813498,-0.0044943587854504585
0.643073024,0.06910242885351181,-0.06661973148584366,9.776372909545898,-0.0014353987062349916,-0.00011688590166158974,-0.0016937318723648787
0.645072384,0.06497389078140259,-0.06102132052183151,9.783696174621582,-0.0003729024901986122,-0.0016714594094082713,0.0035245628096163273
0.647074048,0.06452098488807678,-0.059431929141283035,9.794093132019043,0.00010411821131128818,-0.0011398823698982596,0.0012916302075609565
0.649075456,0.06044093891978264,-0.058279138058423996,9.799873352050781,9.856418910203502e-05,-0.0009270339505746961,-0.0005053988425061107
0.6510755840000001,0.06377843022346497,-0.06094038486480713,9.796050071716309,-0.0005526958266273141,-0.0014893343904986978,-0.0024482826702296734
0.65307904,0.0688120648264885,-0.058123957365751266,9.794114112854004,-0.000855499878525734,-0.0006914748228155077,-0.0009711124585010111
0.655078656,0.07308987528085709,-0.05146821588277817,9.794875144958496,-0.001645776559598744,-0.0017901246901601553,0.007207235787063837
0.657079296,0.07459412515163422,-0.04932956025004387,9.80195426940918,-0.001976605271920562,-0.0017174059757962823,0.004021125845611095
0.6590796800000001,0.07427579909563065,-0.050654344260692596,9.812094688415527,-0.0020127668976783752,-0.002390587003901601,-0.00430222786962986
0.6610810880000001,0.0746782049536705,-0.050375621765851974,9.809266090393066,-0.0016673787031322718,-0.0020471790339797735,-0.0041059404611587524
0.66308224,0.06703789532184601,-0.04970908537507057,9.803930282592773,-0.0002824635012075305,-0.00039764787652529776,-0.0053583597764372826
0.6651901440000001,0.0644649863243103,-0.05267831310629845,9.801501274108887,-0.0003116949228569865,0.0014710790710523725,0.001968542579561472
0.6671910400000001,0.06719192117452621,-0.05162905156612396,9.794655799865723,0.00042909258627332747,0.0017402131343260407,0.00384201155975461
0.6691927040000001,0.07046722620725632,-0.049165476113557816,9.795353889465332,0.0002944271545857191,0.0006882934831082821,0.0015591883566230536
0.6711936000000001,0.07301975786685944,-0.04456564038991928,9.797203063964844,8.738460019230843e-05,-6.417871918529272e-05,0.001971254823729396
0.6731962880000001,0.07672149688005447,-0.03910290449857712,9.789201736450195,0.0014900992391631007,0.0005887721781618893,-0.0025014400016516447
0.6751959040000001,0.07765379548072815,-0.03432409465312958,9.777853012084961,0.0018889993662014604,0.0015244398964568973,0.005095413886010647
0.677197056,0.07731319218873978,-0.030429264530539513,9.76652717590332,0.002498639514669776,0.001852240995503962,0.005763683933764696
0.679197952,0.0764838382601738,-0.02739122323691845,9.756629943847656,0.0031104334630072117,0.001798816374503076,0.000921326398383826
0.6811978240000001,0.07415223866701126,-0.026934295892715454,9.759324073791504,0.0019117380725219846,0.0008942072745412588,-0.004510954488068819
0.683199744,0.06928960233926773,-0.031765736639499664,9.769973754882812,0.001293676090426743,-0.00026428402634337544,-0.006357818376272917
0.685202944,0.06301813572645187,-0.03916102647781372,9.780207633972168,-0.00014694312994834036,-0.0007932218722999096,-0.0026618929114192724
0.6872030720000001,0.058628056198358536,-0.04453578218817711,9.791755676269531,0.00013818373554386199,0.00022696214728057384,0.00023541478731203824
0.68920576,0.056602392345666885,-0.04779855161905289,9.804344177246094,0.0006241315859369934,0.0020258971489965916,0.0020062976982444525
0.691205888,0.0565829798579216,-0.055057406425476074,9.816361427307129,0.0013643758138641715,0.001201548962853849,0.00320075242780149
0.6932062720000001,0.05810803920030594,-0.053621239960193634,9.824676513671875,0.0008258363232016563,-0.0010578742949292064,0.0027014417573809624
0.695205888,0.0580725334584713,-0.054348867386579514,9.829484939575195,0.0007545641274191439,-0.0009335203212685883,0.0017053683986887336
0.6972096000000001,0.05858076363801956,-0.056841325014829636,9.83163070678711,0.0006245733820833266,0.0007209823816083372,-0.0008439491502940655
0.699209472,0.06021349877119064,-0.05158855393528938,9.822784423828125,0.0005353157175704837,0.0014628695789724588,0.002187738660722971
0.7012085760000001,0.06234937533736229,-0.04173585772514343,9.808074951171875,0.0007124728290364146,0.001384433824568987,0.006632794626057148
0.7032079360000001,0.06442781537771225,-0.031196696683764458,9.79276180267334,0.0008738797623664141,0.0017956753727048635,0.015251852571964264
0.705209088,0.06718315184116364,-0.027457745745778084,9.786322593688965,0.0011831916635856032,0.001665617572143674,0.015450280159711838
0.707211264,0.07029847800731659,-0.03103501722216606,9.784889221191406,0.0009668869315646589,0.001383698545396328,0.007798080798238516
0.7092108800000001,0.07358931005001068,-0.0430336557328701,9.782818794250488,0.0012555083958432078,0.0021640819031745195,0.002592261880636215
0.7112140800000001,0.07894418388605118,-0.052239567041397095,9.786027908325195,0.00043760822154581547,0.0011031285393983126,0.0011823507957160473
0.713216768,0.07979916781187057,-0.06081943213939667,9.79090690612793,-0.0007338874856941402,0.0004789722734130919,0.005763712339103222
0.7152143360000001,0.08072269707918167,-0.06829734891653061,9.794073104858398,-0.00013886144733987749,0.0013001556508243084,0.003833343740552664
0.7172160000000001,0.08120761066675186,-0.07207374274730682,9.797574043273926,0.0009303446859121323,0.0002508215548004955,0.000493469531647861
0.7192176640000001,0.0817449688911438,-0.07399770617485046,9.801264762878418,0.0014708542730659246,-0.0006984943756833673,0.0032373310532420874
0.721218816,0.08360634744167328,-0.07141157239675522,9.797478675842285,0.0009325441205874085,-0.0010494905291125178,0.002234024228528142
0.723222272,0.0848333016037941,-0.0707169771194458,9.795527458190918,0.0003242224338464439,-0.0005752071738243103,0.0027244891971349716
0.7252221440000001,0.08467349410057068,-0.06828634440898895,9.786269187927246,0.0008920496329665184,0.00033322841045446694,0.004104457795619965
0.727222016,0.07975290715694427,-0.06771917641162872,9.7848539352417,0.0012013944797217846,-8.289860852528363e-05,0.0036779313813894987
0.729224192,0.08067826181650162,-0.06090708449482918,9.776896476745605,0.0007361595053225756,-0.0012332850601524115,-0.0009286022395826876
0.731224832,0.08484678715467453,-0.06060025468468666,9.776531219482422,-0.00027786524151451886,-0.002201380208134651,3.515021671773866e-05
0.733225984,0.0830298364162445,-0.06331118941307068,9.780387878417969,-0.0007894446607679129,-0.0005293970461934805,0.003428149037063122
0.73522688,0.07860714197158813,-0.06710974127054214,9.785287857055664,-0.0007292759837582707,-0.0007027058163657784,0.0024148470256477594
0.7372282880000001,0.07675368338823318,-0.0659220963716507,9.790968894958496,-0.0005672253319062293,0.00046001942246221006,0.0010506556136533618
0.739229184,0.06839228421449661,-0.06533210724592209,9.805154800415039,0.0006640938227064908,0.0002757919719442725,-0.0003945455246139318
0.7412303360000001,0.06683722883462906,-0.06560979038476944,9.811874389648438,0.0009654267341829836,-0.00014254392590373755,-1.3073936315777246e-05
0.7432299520000001,0.06534124165773392,-0.06491933017969131,9.809412956237793,0.0009603676735423505,0.0002590522344689816,0.0013516877079382539
0.74523136,0.06091585010290146,-0.06784788519144058,9.802183151245117,-9.870189387584105e-05,0.0008444873965345323,0.0024902860168367624
0.747232768,0.05575649440288544,-0.07460834085941315,9.793493270874023,0.0002501883718650788,-0.00045557061093859375,0.002312813187018037
0.74923392,0.05081775784492493,-0.08247912675142288,9.786116600036621,-0.00041679455898702145,-0.0017837209161370993,0.00880699884146452
0.751233024,0.04818301275372505,-0.0846930518746376,9.786723136901855,-0.00027977366698905826,-0.0008939008694142103,0.009043167345225811
0.753237248,0.046569328755140305,-0.0780050978064537,9.784066200256348,-0.00011609312787186354,0.0008579379646107554,0.0054933615028858185
0.7552373760000001,0.04606030881404877,-0.06784302741289139,9.779189109802246,0.0010773600079119205,0.0024719571229070425,0.006382564082741737
0.757238272,0.04855843633413315,-0.0629015862941742,9.778571128845215,0.0014977494720369577,0.0006233329768292606,0.005768219940364361
0.759239168,0.049397800117731094,-0.060395482927560806,9.786745071411133,0.0008373192395083606,-0.0006768355378881097,0.007374933920800686
0.761241088,0.051224347203969955,-0.06227349862456322,9.79304313659668,0.0003582341887522489,-0.0005060498951934278,0.0030704124365001917
0.7632432640000001,0.05216822400689125,-0.06160847097635269,9.796050071716309,6.274114275583997e-05,3.4309141483390704e-05,-0.001038017333485186
0.7653411840000001,0.05262541025876999,-0.05901245400309563,9.796234130859375,-0.0005314263398759067,-0.0005157849518582225,-0.005461449269205332
0.7673405440000001,0.05363869294524193,-0.059259794652462006,9.7957763671875,0.0001877071481430903,-0.000614464282989502,-0.005669437348842621
0.7693424640000001,0.05355089157819748,-0.061853960156440735,9.793880462646484,0.0006988984532654285,-0.00015288051508832723,-0.005453675519675016
0.771342592,0.055802859365940094,-0.06658439338207245,9.79109001159668,0.0007208682945929468,-7.350184750976041e-05,-0.005360230803489685
0.7733447680000001,0.058749593794345856,-0.07161426544189453,9.788276672363281,0.0005207647918723524,0.0007205325528047979,-0.00926150567829609
0.775345664,0.060656189918518066,-0.06796938180923462,9.79493522644043,-4.79008122056257e-07,0.0004920790670439601,-0.010961516760289669
0.77734656,0.05755039304494858,-0.0634930357336998,9.808289527893066,-5.857025462319143e-05,0.00027723456150852144,-0.0055145747028291225
0.779345664,0.050246018916368484,-0.06326749920845032,9.811261177062988,-0.0002171980304410681,0.00040417988202534616,-0.002457413589581847
0.78134656,0.05267634987831116,-0.07109233736991882,9.807602882385254,0.0009025448234751821,-0.0008807174162939191,0.00031820335425436497
0.783347456,0.0485103577375412,-0.07467622309923172,9.805484771728516,0.0006037652492523193,-0.0018250998109579086,-0.0035475792828947306
0.785350144,0.04946994408965111,-0.07353590428829193,9.806306838989258,0.000266571412794292,-0.002052151830866933,0.0009705838747322559
0.78734976,0.057952336966991425,-0.06996650993824005,9.79984188079834,0.00010554118489380926,-0.001345792436040938,0.006676715333014727
0.7893509120000001,0.06267663836479187,-0.06810684502124786,9.798625946044922,-0.00024360051611438394,-0.0004297022824175656,0.0028831970412284136
0.791351808,0.06587685644626617,-0.07225755602121353,9.79001235961914,-0.00015256291953846812,0.0017088784370571375,0.002241741633042693
0.793354752,0.06676283478736877,-0.0752461776137352,9.788636207580566,-0.00028655340429395437,0.0025347163900732994,0.0031023877672851086
0.795356672,0.06716711819171906,-0.07606552541255951,9.792716026306152,-0.0005731790442951024,0.0016692490316927433,0.009748036041855812
0.797356544,0.06842546910047531,-0.07495518028736115,9.79764175415039,-0.0011057407828047872,0.001154411816969514,0.00978204794228077
0.799360512,0.06756914407014847,-0.07302381098270416,9.802629470825195,-0.0005662937182933092,0.002060739789158106,0.01043076254427433
0.801359872,0.06426588445901871,-0.07627365738153458,9.806172370910645,-0.0005782590014860034,0.0019429352832958102,0.0065954155288636684
0.8033623040000001,0.06023568660020828,-0.08247032016515732,9.808310508728027,-0.001041125855408609,0.0009287630673497915,0.002844668924808502
0.8053639680000001,0.05688730627298355,-0.08575710654258728,9.802386283874512,-0.0005824409308843315,-0.0005142160807736218,0.0058743576519191265
0.8073661440000001,0.05436196178197861,-0.0865839496254921,9.792051315307617,0.000132932880660519,-0.0019162974786013365,0.005574463400989771
0.8093667840000001,0.057782843708992004,-0.08820261806249619,9.781651496887207,-5.904112913412973e-05,-0.0017588776536285877,0.0009319931268692017
0.8113674240000001,0.059281185269355774,-0.08177502453327179,9.771682739257812,0.00016123271780088544,-0.0016287971520796418,-0.004722303710877895
0.8133680640000001,0.05703767389059067,-0.07827387750148773,9.769633293151855,-0.00020596465037669986,-0.00019291068019811064,0.001463344320654869
0.8153697280000001,0.05363636091351509,-0.07384856790304184,9.776178359985352,-0.0008523951401002705,0.00040517677552998066,0.004300903528928757
0.8173713920000001,0.058466579765081406,-0.07235177606344223,9.78007698059082,-0.0009206177201122046,-0.0005648947553709149,0.0009327207808382809
0.819371776,0.06430802494287491,-0.0690157487988472,9.779393196105957,0.000701296841725707,-0.0007339302683249116,0.0044618695974349976
0.8213739520000001,0.06984861940145493,-0.06341588497161865,9.7750825881958,0.0009942842880263925,-0.0005038123345002532,0.004601979628205299
0.8233743360000001,0.0733661875128746,-0.060217536985874176,9.777610778808594,0.0003487850190140307,0.0003067928773816675,-0.00011799741332652047
0.8253785600000001,0.07586665451526642,-0.061980560421943665,9.785070419311523,0.0007054379675537348,0.0005529330810531974,0.004713953007012606
0.827379712,0.085769422352314,-0.06910829991102219,9.792562484741211,-0.00026781795895658433,4.345718480180949e-05,0.005161082837730646
0.8293808640000001,0.09151856601238251,-0.06801825761795044,9.793190002441406,0.000415504357079044,0.0008644007612019777,0.0010777978459373116
0.8313807360000001,0.09201528877019882,-0.0677480399608612,9.786700248718262,-0.0012029351200908422,0.00140589929651469,0.0030657954048365355
0.833383168,0.08861836791038513,-0.06723152846097946,9.794775009155273,-0.0005456259241327643,0.0008496710797771811,0.004300530068576336
0.8353817600000001,0.08257535099983215,-0.06278974562883377,9.814373970031738,-0.0003549004904925823,0.000550276949070394,0.003462105290964246
0.8373836800000001,0.07570812851190567,-0.05667014792561531,9.8347806930542,0.00015298240759875625,0.00042150160879828036,0.007760596461594105
0.8393866240000001,0.07175268977880478,-0.04951068013906479,9.849837303161621,0.001288611558265984,0.00012074665573891252,0.005597660783678293
0.841389056,0.06769916415214539,-0.047049641609191895,9.849867820739746,-0.0007739621796645224,0.0005222071777097881,0.008413702249526978
0.8433912320000001,0.0714571550488472,-0.04660303518176079,9.8397855758667,-0.0003235373296774924,0.0004983904655091465,0.007050437852740288
0.8453921280000001,0.07132139056921005,-0.044253457337617874,9.828289031982422,-0.00016824832709971815,-0.00023107408196665347,0.0019464311189949512
0.847393024,0.07205517590045929,-0.04049506038427353,9.811176300048828,-0.0002590463845990598,-0.00030638265889137983,0.0024913037195801735
0.8493908480000001,0.07302600890398026,-0.040032900869846344,9.795435905456543,-0.0007215038058348,0.0016030884580686688,0.0030876605305820704
0.8513925120000001,0.07388495653867722,-0.040572214871644974,9.78943157196045,-0.00147930474486202,0.002361471299082041,0.002400108613073826
0.85339392,0.07758790999650955,-0.04616159573197365,9.792806625366211,0.00021322217071428895,0.0024767499417066574,-0.0018781415419653058
0.85539456,0.0758817121386528,-0.0460568405687809,9.792576789855957,0.0016530775465071201,0.00045097083784639835,-9.214394231094047e-05
0.8573957120000001,0.07623088359832764,-0.048653364181518555,9.789807319641113,0.0014307991368696094,0.0001268083433387801,0.001614845939911902
0.859394816,0.0793762132525444,-0.05457578971982002,9.788406372070312,3.530820686137304e-05,-0.0004899216000922024,0.0011634015245363116
0.861394944,0.07899101823568344,-0.06069983169436455,9.787500381469727,3.4141081414418295e-05,-0.0007478735060431063,-0.0009536092984490097
0.86339584,0.07913225144147873,-0.06524945050477982,9.789520263671875,0.00028900185134261847,-0.0012590107508003712,0.005622954573482275
0.8654771200000001,0.07851440459489822,-0.068572036921978,9.795392036437988,0.0007089339778758585,-0.0006377585232257843,0.008892136625945568
0.867477248,0.07916393876075745,-0.07000511884689331,9.790782928466797,0.0005709375836886466,-1.3930104614701122e-05,0.00460979575291276
0.8694771200000001,0.07695960253477097,-0.06542597711086273,9.79084587097168,0.0007950392900966108,-0.00010473103611730039,0.003638161811977625
0.871478272,0.07515832036733627,-0.07213696092367172,9.797176361083984,-0.000497991219162941,-3.7897138099651784e-05,-0.0015845830785110593
0.8734807040000001,0.07225101441144943,-0.07516752183437347,9.801827430725098,-0.0011722519993782043,-0.00011066360457334667,0.002266006777063012
0.8754790400000001,0.07376693189144135,-0.07784728705883026,9.800621032714844,-0.0008458588854409754,-0.0009059296571649611,-0.0002083293511532247
0.8774812160000001,0.07955364882946014,-0.08360888063907623,9.799673080444336,-0.0013372419634833932,-0.000186978853889741,0.0033762017264962196
0.879482112,0.08337051421403885,-0.08568261563777924,9.797029495239258,-0.0012423350708559155,0.0003666323609650135,0.004767404869198799
0.881481728,0.08277392387390137,-0.0819041058421135,9.800531387329102,0.00031280945404432714,0.0008808595011942089,0.0060972170904278755
0.883483392,0.08103904128074646,-0.07750377804040909,9.806009292602539,0.0001930766156874597,0.0002577761479187757,0.004884057212620974
0.8854845440000001,0.07976067811250687,-0.07315676659345627,9.813173294067383,-0.0003255109768360853,-0.0004953433526679873,0.0016367679927498102
0.8874867200000001,0.07883299142122269,-0.0693763941526413,9.820144653320312,-6.58357676002197e-05,-0.0012970040552318096,-0.002120185410603881
0.8894860800000001,0.07960961759090424,-0.06870890408754349,9.825201988220215,0.0005300103221088648,-0.002823896473273635,-0.0005804533720947802
0.891485696,0.08135772496461868,-0.0700199231505394,9.828587532043457,0.0013431435218080878,-0.003254358423873782,0.006541351322084665
0.8934929920000001,0.08173874765634537,-0.07070265710353851,9.83102798461914,0.0011334590381011367,-0.002458087168633938,0.011346970684826374
0.89549312,0.08233632892370224,-0.06813006848096848,9.833184242248535,0.0016777515411376953,-0.0014978821855038404,0.008617445826530457
0.8974942720000001,0.08262062072753906,-0.06426404416561127,9.832060813903809,0.001150630647316575,-0.000506041047628969,0.0004764768236782402
0.8994961920000001,0.08606567233800888,-0.06264446675777435,9.829251289367676,0.0001850990520324558,0.0001578757946845144,-0.0020057742949575186
0.9014976,0.09051789343357086,-0.06311815977096558,9.826447486877441,0.0006587296375073493,-0.0009356563678011298,-0.0017672457033768296
0.903499008,0.09675534069538116,-0.06728989630937576,9.824478149414062,0.001253207097761333,-0.0020827960688620806,-0.00031486895750276744
0.9055029760000001,0.1034332662820816,-0.07319748401641846,9.823221206665039,0.0015329306479543447,-0.0026266793720424175,0.00157247728202492
0.907501824,0.10513357073068619,-0.0742841362953186,9.815692901611328,0.0015187021344900131,-0.0010098376078531146,0.004978734999895096
0.909503744,0.09818484634160995,-0.070589579641819,9.812029838562012,0.00013967067934572697,0.00048160640290006995,0.004045458976179361
0.9115061760000001,0.09343328326940536,-0.06788792461156845,9.806458473205566,-0.00042869002209044993,0.0006980167236179113,0.0001268187479581684
0.9135086080000001,0.08645565807819366,-0.06473126262426376,9.806568145751953,-0.00035938454675488174,0.0005766930989921093,-8.561373397242278e-05
0.9155059200000001,0.08243788778781891,-0.064667709171772,9.810821533203125,-9.918262367136776e-05,0.000845169008243829,0.005734823644161224
0.917508352,0.08123063296079636,-0.06673693656921387,9.816271781921387,0.0006013136589899659,0.0012475689873099327,0.010892876423895359
0.919508736,0.07894495874643326,-0.06367045640945435,9.818655967712402,0.0006017985288053751,0.001470805611461401,0.0075186146423220634
0.9215098880000001,0.0804164856672287,-0.06019357219338417,9.813349723815918,0.0010767250787466764,0.0011277638841420412,0.00286277336999774
0.9235136,0.07659095525741577,-0.053602591156959534,9.807782173156738,0.0016261439304798841,-0.00018645507225301117,0.0024633188731968403
0.9255139840000001,0.06875784695148468,-0.05038159713149071,9.79438591003418,0.0006557023152709007,-0.0014189773937687278,-0.0003500359889585525
0.9275146240000001,0.05891425162553787,-0.0537681058049202,9.788189888000488,0.0006750182947143912,-0.001031606225296855,0.0015186707023531199
0.9295139840000001,0.05979865789413452,-0.054194044321775436,9.788034439086914,0.002942474326118827,0.00043927496881224215,0.006074156146496534
0.9315179520000001,0.06046196445822716,-0.05370499566197395,9.789819717407227,0.0016778005519881845,0.0005750434356741607,9.83780191745609e-05
0.933517056,0.05531908571720123,-0.057696741074323654,9.797359466552734,0.000887419271748513,0.0011169222416356206,0.0006435411050915718
0.9355192320000001,0.054652415215969086,-0.06365031749010086,9.798055648803711,0.0005799256032332778,0.0010963508393615484,0.004642986226826906
0.93751936,0.053398873656988144,-0.06619419157505035,9.798712730407715,-0.0001421028864569962,0.00031218750518746674,0.0032647177577018738
0.9395202560000001,0.049063291400671005,-0.07289060950279236,9.803462982177734,5.0333565013716e-05,-0.0015691348817199469,0.0003265186387579888
0.9415237120000001,0.0502358078956604,-0.07686271518468857,9.801392555236816,0.0019884230569005013,-0.0008966064779087901,0.001156242680735886
0.94352256,0.051383405923843384,-0.06347280740737915,9.809968948364258,0.0017156810499727726,-0.0006555540021508932,0.001587431412190199
0.9455247360000001,0.051424264907836914,-0.040939271450042725,9.825726509094238,0.0006402923027053475,-0.0007291569490917027,0.004631838295608759
0.9475251200000001,0.05099796876311302,-0.017410429194569588,9.842509269714355,0.001120953937061131,-0.0010385061614215374,0.0044963546097278595
0.949525248,0.05811931937932968,-0.014194082468748093,9.849447250366211,0.0010543569223955274,-0.001152680953964591,0.0016617798246443272
0.9515276800000001,0.06940501928329468,-0.024266282096505165,9.849383354187012,0.0014935663202777505,-0.0009021015139296651,0.007413177285343409
0.9535296000000001,0.07476835697889328,-0.02516847476363182,9.846403121948242,0.0020248324144631624,0.0006045313784852624,0.006722554098814726
0.955528448,0.07303671538829803,-0.02696514129638672,9.837775230407715,0.000564163492526859,0.0011404569959267974,0.005660824477672577
0.957529088,0.0727703794836998,-0.03045397438108921,9.826675415039062,-6.885893526487052e-05,-0.0008347638067789376,0.004745136946439743
0.9595302400000001,0.07578165084123611,-0.03217092901468277,9.824586868286133,0.0010436559095978737,0.0003953558043576777,-0.0018993960693478584
0.9615324160000001,0.0777384415268898,-0.039665546268224716,9.827223777770996,0.0009602759382687509,-0.0004670285270549357,0.0013106496771797538
0.963534336,0.07649227231740952,-0.04032760113477707,9.823936462402344,0.0008249423117376864,-0.0015528835356235504,0.0052687725983560085
0.9656532480000001,0.07406928390264511,-0.04468472674489021,9.824010848999023,0.001869575004093349,0.0004619588435161859,-0.0004100770747754723
0.9676538880000001,0.0715775117278099,-0.04461199790239334,9.819575309753418,0.0028747597243636847,-8.042636181926355e-05,0.0008242910844273865
0.9696555520000001,0.06840793043375015,-0.04367727041244507,9.819596290588379,0.0018596180016174912,0.00031121278880164027,0.003479697508737445
0.9716549120000001,0.06655588001012802,-0.045136529952287674,9.82818603515625,-0.000547023955732584,-0.00015576202713418752,0.0014950146432965994
0.973658368,0.06584303826093674,-0.047888774424791336,9.840469360351562,-0.0024377505760639906,-0.0029128328897058964,-0.0028769476339221
0.9756595200000001,0.06713678687810898,-0.0517972968518734,9.843623161315918,-0.0007424697396345437,-0.002163975965231657,-0.0008276116568595171
0.9776604160000001,0.06946344673633575,-0.05593721568584442,9.840310096740723,0.0011327684624120593,-0.002603782108053565,0.005608844570815563
0.9796613120000001,0.07000762969255447,-0.059655290096998215,9.832308769226074,0.0008431246387772262,-0.0003316792717669159,0.004458316136151552
0.9816627200000001,0.06301567703485489,-0.0665762796998024,9.825160026550293,-0.00014841680240351707,0.0020846743136644363,0.0072636413387954235
0.9836625920000001,0.05749158933758736,-0.06482811272144318,9.826104164123535,0.000192758408957161,0.001240550191141665,0.004521979950368404
0.9856642560000001,0.056023672223091125,-0.06582953780889511,9.82945442199707,5.14118728460744e-05,-0.0005878919619135559,-0.0033244213555008173
0.9876656640000001,0.05989760160446167,-0.07051710039377213,9.832210540771484,0.000534439051989466,-0.001081836991943419,0.0017131473869085312
0.9896663040000001,0.06551219522953033,-0.07502947747707367,9.831007957458496,-7.120542250049766e-06,-0.0001126616625697352,0.005295188166201115
0.991667712,0.06600148975849152,-0.07398585230112076,9.823488235473633,-0.0006267816061154008,0.0003865286707878113,0.0018110702512785792
0.9936701440000001,0.06574012339115143,-0.07352638244628906,9.821013450622559,-0.0008670050883665681,0.00039544925675727427,-0.0023013558238744736
0.995668992,0.06531292200088501,-0.0719180479645729,9.820575714111328,0.0002360900107305497,0.0013755919644609094,0.002006877912208438
0.997669632,0.058022793382406235,-0.07183901965618134,9.817085266113281,0.0023582945577800274,0.0008466200670227408,0.005864804144948721
0.9996705280000001,0.0576862096786499,-0.06915908306837082,9.814325332641602,-0.0005407438729889691,-0.0006610950222238898,-0.0026812031865119934
1.0016711680000001,0.06387555599212646,-0.0590093731880188,9.813772201538086,-0.0007700007408857346,-0.0019569238647818565,-0.0013729785569012165
1.0036741120000001,0.06648538261651993,-0.05375322699546814,9.811564445495605,0.0002772306906990707,-0.0015022893203422427,0.0020631549414247274
1.005675264,0.07213230431079865,-0.05687586963176727,9.807747840881348,-0.00026934914058074355,-0.000994679401628673,-0.0003827770706266165
1.0076761600000002,0.08045222610235214,-0.061238233000040054,9.800734519958496,0.000806623138487339,-0.0014936433872208,-0.001346577308140695
1.00967552,0.08896093815565109,-0.06378565728664398,9.798798561096191,-0.0009528587688691914,-0.0010550242150202394,0.0028315905947238207
1.011676672,0.09452085196971893,-0.06525637954473495,9.801878929138184,-0.0007021893397904932,0.0014036338543519378,0.003343651071190834
1.013678592,0.09510564059019089,-0.06646203249692917,9.806025505065918,-0.001464763074181974,0.00276314583607018,0.0035201329737901688
1.015679232,0.09603238850831985,-0.06823675334453583,9.803038597106934,-0.0020110735204070807,0.0020711072720587254,-0.0005088619654998183
1.0176803840000002,0.09401597827672958,-0.06966523826122284,9.802515983581543,0.00012405340385157615,0.001834157039411366,-0.0048110573552548885
1.0196812800000001,0.09686820954084396,-0.06225178763270378,9.800055503845215,0.0016381748719140887,0.0005615783738903701,-0.004985867999494076
1.0216829440000001,0.1007351502776146,-0.05523126572370529,9.79574966430664,0.0008109409245662391,0.00031663852860219777,-0.0018139459425583482
1.0236825600000001,0.09880004078149796,-0.05698273703455925,9.794231414794922,0.0014507902087643743,-0.0016488843830302358,-0.0029452384915202856
1.025683712,0.09329152852296829,-0.05897311493754387,9.791550636291504,0.0004845453368034214,-0.001947812968865037,-0.0011250636307522655
1.0276846080000002,0.09419403970241547,-0.05841107293963432,9.795333862304688,0.00038405050872825086,-0.0008084623841568828,0.0007340036099776626
1.02968448,0.09523998200893402,-0.06394774466753006,9.793996810913086,3.8388141547329724e-05,0.0005073032807558775,0.001282614772208035
1.031685632,0.08937613666057587,-0.07516464591026306,9.799960136413574,4.5528155169449747e-05,0.0006060544401407242,0.00038325710920616984
1.03368832,0.07993307709693909,-0.07965463399887085,9.802913665771484,-0.00011343994992785156,9.769057214725763e-05,-0.0011009223526343703
1.035687936,0.07598498463630676,-0.0779331848025322,9.797146797180176,0.0008813357562758029,-0.000611647148616612,0.001808821689337492
1.03768832,0.07608131319284439,-0.07552114129066467,9.789498329162598,2.1611265765386634e-05,-0.0006416350370272994,0.0013361232122406363
1.0396897280000001,0.07582679390907288,-0.07525929063558578,9.78017807006836,-0.0008348237606696784,-0.0009933504043146968,0.00035244462196715176
1.0416913920000002,0.07329720258712769,-0.08144387602806091,9.782740592956543,-0.00033456110395491123,-0.002550653647631407,-0.0010169984307140112
1.043692544,0.06869714707136154,-0.08148585259914398,9.789437294006348,0.0007466906099580228,-0.0028044157661497593,0.0024359961971640587
1.045697536,0.06559791415929794,-0.07706430554389954,9.79139518737793,0.0016247826861217618,-0.002101706573739648,0.003837830852717161
1.04669952,0.06642100214958191,-0.07460001111030579,9.786784172058105,0.0016529284184798598,-0.0018794368952512741,0.003703946713358164
1.0486996480000002,0.07022132724523544,-0.06983955949544907,9.77293586730957,0.0013097842456772923,-0.0022576008923351765,-0.00506003899499774
1.050701056,0.074822798371315,-0.06588665395975113,9.763297080993652,0.0013459693873301148,-0.001633868901990354,-0.012996007688343525
1.052702464,0.07414562255144119,-0.06203579157590866,9.761442184448242,0.0015260204672813416,-0.0017841669032350183,-0.0077112093567848206
1.05470464,0.07057415693998337,-0.05805627256631851,9.760333061218262,0.0008481054101139307,-0.0016194609925150871,-0.005457563325762749
1.056707584,0.07171936333179474,-0.053151972591876984,9.765729904174805,0.0012219699565321207,-0.0007281770231202245,0.0006154090515337884
1.058709248,0.07508719712495804,-0.05546044185757637,9.77733325958252,0.0002752023283392191,-0.0005314290174283087,-0.0005115637322887778
1.060709632,0.07798431068658829,-0.06051504611968994,9.780167579650879,-3.96124814869836e-05,-0.0004241465067025274,0.0006798473768867552
1.0627123200000002,0.07413142919540405,-0.06386014819145203,9.781160354614258,0.00016076445172075182,0.0004937165649607778,0.0026792886201292276
1.064713472,0.06899354606866837,-0.06410227715969086,9.781283378601074,8.61312510096468e-05,0.0023390965070575476,0.00511215440928936
1.066862848,0.063605397939682,-0.06397129595279694,9.780313491821289,0.0005561335710808635,0.00342405098490417,0.007130057085305452
1.068863488,0.06210489943623543,-0.06370096653699875,9.779377937316895,0.00044318570871837437,0.002724852180108428,0.010406291112303734
1.0708633600000002,0.06841738522052765,-0.06266911327838898,9.776455879211426,0.00041559370583854616,0.0011594098759815097,0.004855546168982983
1.072864768,0.07051411271095276,-0.0593065544962883,9.76978874206543,0.0015039043501019478,-0.0006241129012778401,0.0002341922518098727
1.074865152,0.06975475698709488,-0.055273011326789856,9.763225555419922,0.0037723216228187084,-0.0018119034357368946,-0.0032177092507481575
1.0768655360000001,0.05972830578684807,-0.053354158997535706,9.759668350219727,0.0036686109378933907,-0.00024999515153467655,-0.0015907399356365204
1.078867456,0.048750363290309906,-0.0515434704720974,9.760377883911133,0.000672290800139308,0.0009327942971140146,-0.0009418188710696995
1.0808675840000002,0.047057196497917175,-0.05332757160067558,9.759873390197754,-0.0011487785959616303,0.0017291635740548372,-0.002455943264067173
1.082871296,0.04945218190550804,-0.056388970464468,9.758923530578613,-0.0019991633016616106,0.0010759695433080196,-0.010522418655455112
1.0848734720000002,0.05325393006205559,-0.05960021913051605,9.757908821105957,-0.0013575140619650483,0.00038591097109019756,-0.014296403154730797
1.086875392,0.05428338050842285,-0.06103014200925827,9.758914947509766,-0.0008727139211259782,-0.0003086169308517128,-0.011057098396122456
1.088875008,0.05331208556890488,-0.061180099844932556,9.761115074157715,-0.00155818706844002,-0.0010628290474414825,-0.007709389552474022
1.090878464,0.054207347333431244,-0.06022404506802559,9.765012741088867,-0.0007341959862969816,0.000388003682019189,-0.006900778505951166
1.092879616,0.060255009680986404,-0.060780324041843414,9.778765678405762,-0.00022281472047325224,-0.00015385002188850194,-0.006067286711186171
1.0948802560000002,0.06662742048501968,-0.0659937709569931,9.80239200592041,-0.0003074867418035865,-8.834878826746717e-05,-0.005312800873070955
1.096879616,0.07522086054086685,-0.07490146160125732,9.805554389953613,-0.0006503195618279278,-0.0004272382939234376,-0.002249719575047493
1.098879232,0.0812467560172081,-0.08280399441719055,9.800315856933594,-0.0010129779111593962,-0.0008583637536503375,0.0003807204484473914
1.100881408,0.08022799342870712,-0.08472828567028046,9.804412841796875,-0.0006533364066854119,0.00015953487309161574,-0.0012986792717128992
1.1028828160000002,0.07756105065345764,-0.08109765499830246,9.8070068359375,-0.0007895802264101803,0.0008632420212961733,0.002608819864690304
1.1048832000000002,0.0721357986330986,-0.07889719307422638,9.808053016662598,0.00012942793546244502,0.0008054892532527447,0.0024191562552005053
1.106884864,0.06886110454797745,-0.0754343643784523,9.810619354248047,0.00022472544515039772,0.00024290717556141317,-0.0013907401589676738
1.1088857600000002,0.07109466940164566,-0.07164158672094345,9.814332008361816,-0.00025560249923728406,0.00012259569484740496,0.0016758281271904707
1.110886144,0.07233841717243195,-0.07341838628053665,9.814183235168457,5.361794319469482e-05,0.0005526925669983029,0.0014128753682598472
1.112887296,0.07154739648103714,-0.07552864402532578,9.807409286499023,-0.00022655048815067858,0.0006410271744243801,-0.0030468269251286983
1.114889728,0.07291074842214584,-0.07760738581418991,9.804023742675781,0.0010027714306488633,0.0010160959791392088,0.0008642026805318892
1.1168896000000001,0.0734546110033989,-0.07727060467004776,9.796929359436035,8.957837053458206e-06,0.0003446821356192231,0.002629038877785206
1.118888448,0.06651143729686737,-0.07392621040344238,9.796040534973145,0.0011452818289399147,-0.0001256590330740437,0.0010369098745286465
1.120890624,0.06741712242364883,-0.06926872581243515,9.799515724182129,0.00179284845944494,0.0007312262896448374,0.0016047790413722396
1.122893312,0.07434394210577011,-0.06464632600545883,9.8042573928833,0.0029029599390923977,0.0022141863591969013,-0.0037769589107483625
1.1248947200000001,0.07474708557128906,-0.0572533905506134,9.80509090423584,0.0013934130547568202,0.003154693404212594,-0.004185958299785852
1.12689536,0.0703519806265831,-0.048796117305755615,9.80323600769043,-0.00033196163713000715,0.0021566932555288076,0.0014042184920981526
1.1288967680000002,0.06979051977396011,-0.049604061990976334,9.796645164489746,-0.0010323768947273493,0.0010017738677561283,0.008707050234079361
1.1308984320000002,0.07091959565877914,-0.05521640554070473,9.79182243347168,-0.0009006964974105358,0.00037887581856921315,0.00533496355637908
1.1329006080000001,0.07391169667243958,-0.058158028870821,9.788299560546875,-0.00016318331472575665,0.0003025674959644675,-0.0006688991561532021
1.13490176,0.08197217434644699,-0.06205889582633972,9.78625202178955,0.001486581633798778,-0.0014523598365485668,-0.003484606510028243
1.136902144,0.09066280722618103,-0.06610986590385437,9.785552978515625,0.0011932352790609002,-0.0034645996056497097,-0.008463104255497456
1.138903296,0.09286618232727051,-0.06668104976415634,9.788355827331543,0.000318479462293908,-0.004014026373624802,-0.005105156917124987
1.1409044480000001,0.09404454380273819,-0.06755679100751877,9.792757034301758,-0.0004503865784499794,-0.0025036882143467665,-0.004512378480285406
1.142905856,0.09243591129779816,-0.06738238036632538,9.792369842529297,-0.00034376539406366646,-0.000895461649633944,0.001615240704268217
1.144905472,0.09158198535442352,-0.061269812285900116,9.789199829101562,-0.0007057386101223528,-0.0006106134387664497,0.00425961147993803
1.146907648,0.08778601139783859,-0.05776895210146904,9.791511535644531,-0.0002496376691851765,-0.00010593504703138024,0.0064741563983261585
1.148907264,0.08288422226905823,-0.05254329741001129,9.80313777923584,-0.00017030794697348028,1.8331842511543073e-05,0.0033310633152723312
1.150908416,0.07870166003704071,-0.0509464368224144,9.809447288513184,0.0007727585616521537,-0.00047222667490132153,0.001634129206649959
1.152909568,0.07153542339801788,-0.05217156931757927,9.808478355407715,0.0008491504122503102,-6.465017213486135e-05,0.0007023919024504721
1.154910208,0.07099155336618423,-0.053464487195014954,9.801006317138672,0.0012754964409396052,3.5134195059072226e-05,0.0015842975117266178
1.15691136,0.07307901233434677,-0.05879729241132736,9.800719261169434,0.0011947863968089223,-0.0006650101859122515,0.006052121054381132
1.158911488,0.07029347121715546,-0.06000277027487755,9.803864479064941,0.0015489361248910427,-0.0007726808544248343,0.0007959179347380996
1.1609136640000002,0.06888160854578018,-0.057973362505435944,9.805649757385254,0.0016939856577664614,0.0007366484496742487,-0.0030569052323698997
1.1629145600000002,0.06485319882631302,-0.05799480527639389,9.80156421661377,0.0007529346039518714,0.0011168181663379073,0.0017924675485119224
1.164917248,0.05948130413889885,-0.06069275364279747,9.800971984863281,0.000933226605411619,0.0007451392011716962,0.006075686775147915
1.167044608,0.05652781203389168,-0.06274685263633728,9.802916526794434,0.0007368098013103008,0.00040937456651590765,0.001250106026418507
1.169043968,0.05432715639472008,-0.060905274003744125,9.796987533569336,0.0010876031592488289,-0.0006830264464952052,0.0006545186624862254
1.171044864,0.054404810070991516,-0.05646440386772156,9.785285949707031,0.00044434264418669045,-0.0005507625173777342,0.0016624073032289743
1.1730457600000002,0.05601925402879715,-0.05113730952143669,9.772282600402832,-8.266149961855263e-05,0.0003847255138680339,0.009239590726792812
1.1750461440000002,0.06287887692451477,-0.04802967980504036,9.774300575256348,0.0006205446552485228,0.0018397794337943196,0.008645185269415379
1.177046784,0.06527522951364517,-0.04368599131703377,9.78309154510498,-0.00016236335795838386,0.0016612170729786158,0.008377321995794773
1.1790479360000001,0.06710454076528549,-0.03784351795911789,9.797154426574707,3.194803502992727e-05,0.0005824259133078158,0.003958558198064566
1.181051136,0.06910592317581177,-0.033017128705978394,9.808369636535645,0.0003107032389380038,-8.438820077572018e-05,-0.002058638958260417
1.183052032,0.06708820164203644,-0.03294063359498978,9.814088821411133,0.0005084364674985409,-0.0011385178659111261,0.005752089899033308
1.185053184,0.0664776861667633,-0.03609847649931908,9.814931869506836,0.00020859968208242208,-0.0005717470194213092,0.005644585471600294
1.187054848,0.06521980464458466,-0.03908415138721466,9.811182975769043,0.0009675386245362461,0.00010408784146420658,-0.002124092308804393
1.189056512,0.0633615106344223,-0.048990000039339066,9.801126480102539,0.0013649630127474666,0.00036336289485916495,-0.0031024550553411245
1.1910576640000001,0.0631694346666336,-0.056937817484140396,9.79775619506836,0.0005616364069283009,0.0003419603453949094,0.0017628006171435118
1.1930580480000001,0.06417332589626312,-0.06212026998400688,9.799861907958984,-7.28986706235446e-05,0.0002942832070402801,0.0073744263499975204
1.1950597120000002,0.06362846493721008,-0.06549926102161407,9.804471015930176,0.00020651127852033824,-0.00020656321430578828,0.005604740232229233
1.197061632,0.06202896684408188,-0.06770219653844833,9.809666633605957,0.0002791639999486506,-0.0017174078384414315,-0.000979675562120974
1.199060736,0.06147957220673561,-0.06747961789369583,9.813165664672852,0.00022930369595997036,-0.001127516501583159,-0.004366479814052582
1.2010606080000001,0.06434489041566849,-0.061572927981615067,9.813091278076172,9.347087143396493e-06,-0.0002688970707822591,-0.005984364077448845
1.203062016,0.07067982852458954,-0.06052295118570328,9.819343566894531,0.0006102174520492554,-0.0010777943534776568,-0.0009625336388126016
1.205063424,0.07922644168138504,-0.06329908967018127,9.820708274841309,0.001041701529175043,-0.0023221613373607397,0.0068976255133748055
1.207064576,0.08353900164365768,-0.05963558703660965,9.820601463317871,0.0002661142498254776,-0.0009187795221805573,0.003992823883891106
1.2090639360000002,0.08447220176458359,-0.0518372543156147,9.820610046386719,-0.0005801938241347671,0.0006200441857799888,0.0018767276778817177
1.2110661120000001,0.08339716494083405,-0.04425051435828209,9.816818237304688,-0.0007740171276964247,0.0005645903875119984,0.0034820851869881153
1.2130670080000001,0.07635755836963654,-0.04452384263277054,9.807673454284668,-0.0005020051612518728,0.0011638326104730368,0.0005770199932157993
1.2150681600000002,0.06865362823009491,-0.04745738208293915,9.797730445861816,0.0003844301390927285,0.0017396820476278663,0.0034444972407072783
1.217069824,0.06477020680904388,-0.04965973272919655,9.790542602539062,-0.00039866898441687226,0.0025914988946169615,0.004541514441370964
1.2190712320000001,0.06618455052375793,-0.046516407281160355,9.784753799438477,-0.0006928855436854064,0.002747761318460107,-2.876044891308993e-05
1.221070592,0.07052377611398697,-0.04486377164721489,9.782953262329102,-0.0002292191202286631,0.002550609176978469,0.0036060521379113197
1.2230712320000001,0.08065541833639145,-0.05571168661117554,9.791284561157227,0.0004198228125460446,0.001831179135479033,0.004915257915854454
1.22507264,0.08736877888441086,-0.058758191764354706,9.791629791259766,0.0009053331450559199,-0.0004434991569723934,0.003496449440717697
1.227073024,0.09062360972166061,-0.05507028475403786,9.785859107971191,0.0012850180501118302,-0.000362069986294955,0.009469952434301376
1.2290728960000001,0.09010466933250427,-0.05383859574794769,9.788351058959961,0.0009846646571531892,0.0006274074548855424,0.00817408598959446
1.231074816,0.0894419401884079,-0.05405585095286369,9.796480178833008,0.0014253434492275119,-8.283019269583747e-05,0.006138021592050791
1.2330762240000002,0.09007231146097183,-0.051332246512174606,9.803061485290527,0.0011311698472127318,2.0852599845966324e-05,0.0036877626553177834
1.235077632,0.08726935088634491,-0.05010361969470978,9.80780029296875,5.542253711610101e-05,-0.0007959534414112568,-0.0010535188484936953
1.2370821120000002,0.08167581260204315,-0.04903491586446762,9.805896759033203,0.0008218376315198839,7.182946865214035e-05,0.0026010789442807436
1.239083264,0.07511314749717712,-0.05072418972849846,9.80183219909668,0.0013262995053082705,0.0013179485686123371,0.00450299633666873
1.241084928,0.07030737400054932,-0.05110914260149002,9.79434871673584,0.0004913628217764199,0.0020121177658438683,0.002046086359769106
1.2430848,0.06273286789655685,-0.05327313020825386,9.793963432312012,-0.0001744842593325302,0.001382179674692452,0.004467956721782684
1.2450864640000001,0.062402185052633286,-0.05806075036525726,9.791304588317871,-0.0002211860555689782,4.6426404878729954e-05,0.003246953012421727
1.247087872,0.06704223901033401,-0.06358226388692856,9.78671932220459,-0.0005944391596131027,-0.00043776328675448895,0.008358743973076344
1.249088256,0.07413751631975174,-0.07016042619943619,9.793438911437988,-0.0005411091260612011,0.00044214894296601415,0.008239004760980606
1.2510881280000001,0.07632100582122803,-0.07575199007987976,9.799684524536133,0.000605724286288023,0.00020842475350946188,0.006416372489184141
1.2530877440000001,0.0806376188993454,-0.08143503218889236,9.810372352600098,0.0013619883684441447,-0.0005194690311327577,0.0037354615051299334
1.2550888960000002,0.07616037130355835,-0.08920469135046005,9.816154479980469,0.0011639889562502503,-0.0009331792243756354,-0.0030363700352609158
1.2570910720000001,0.0654723197221756,-0.09025914967060089,9.805364608764648,0.0012528413208201528,-0.0008741924539208412,0.001910312450490892
1.259093248,0.0608108714222908,-0.08813867717981339,9.800294876098633,0.0017581324791535735,1.5453226296813227e-05,0.0015873765805736184
1.261095168,0.05937817320227623,-0.0865970253944397,9.806069374084473,0.0018827636959031224,-0.0010312078520655632,-0.00038226114702410996
1.2630960640000002,0.058076389133930206,-0.08413195610046387,9.8093843460083,0.001503737410530448,-0.0018320332746952772,0.0014880943344905972
1.2650969600000002,0.06334187835454941,-0.0800052285194397,9.804910659790039,0.0010904900263994932,-0.0003423902380745858,0.002777170157060027
1.267203584,0.07199946790933609,-0.07605884224176407,9.797863960266113,0.00046362343709915876,0.0015448288759216666,0.009686649776995182
1.269205504,0.08098897337913513,-0.07268194109201431,9.790624618530273,0.0009334338828921318,0.0026931161992251873,0.01666867360472679
1.2712066560000002,0.08322430402040482,-0.06870824098587036,9.783988952636719,0.00027755420887842774,0.0012929551303386688,0.015213817358016968
1.273207808,0.08203688263893127,-0.06430396437644958,9.782440185546875,-0.0004635235236492008,9.224047971656546e-05,0.0048321993090212345
1.2752079360000002,0.0782167837023735,-0.06581874191761017,9.783735275268555,0.0003752392658498138,-0.0012789452448487282,-0.0020358748733997345
1.2772088320000001,0.07282339781522751,-0.07140102237462997,9.784747123718262,0.0007680673734284937,-0.0014879697700962424,-0.0065506938844919205
1.279208448,0.07129327207803726,-0.07077360153198242,9.794645309448242,0.0008689239621162415,-6.568134995177388e-05,-0.003671860322356224
1.2812096000000002,0.0725201815366745,-0.06639909744262695,9.803194046020508,0.00041683620656840503,-0.00011942278069909662,0.0015959346201270819
1.28321152,0.07522500306367874,-0.06946290284395218,9.809858322143555,0.0002955066447611898,6.481367017840967e-05,0.0034178029745817184
1.2852134400000002,0.0796569287776947,-0.07252494990825653,9.817497253417969,5.122100264998153e-05,-0.0009643218363635242,0.0030545115005224943
1.28721536,0.08218362182378769,-0.07142483443021774,9.812024116516113,-0.00018060629372484982,4.85948885398102e-06,0.0012114038690924644
1.2892160000000001,0.0813416913151741,-0.06741785258054733,9.796473503112793,0.0004242512513883412,0.001092041959054768,0.0017144312150776386
1.2912176640000002,0.08160179853439331,-0.06269916146993637,9.790678024291992,0.002541147405281663,0.0012635377934202552,0.0036004818975925446
1.293218304,0.0804818794131279,-0.059235431253910065,9.790735244750977,0.0028704421129077673,0.0007808900554664433,0.0033763579558581114
1.295218432,0.07903525978326797,-0.05415636673569679,9.790131568908691,0.001269709668122232,0.00011257642472628504,-0.0008926395094022155
1.297219072,0.07632920891046524,-0.053776759654283524,9.789196968078613,0.0010063882218673825,-0.0002802952076308429,-0.0037238013464957476
1.299219712,0.07343626022338867,-0.05647827684879303,9.789193153381348,0.0011992092477157712,0.00048544618766754866,-0.007089008577167988
1.3012224000000001,0.07359202951192856,-0.05846908688545227,9.789210319519043,0.0010505201062187552,0.001771534443832934,-0.008157814852893353
1.303222528,0.07754551619291306,-0.056912824511528015,9.790614128112793,0.0015246054390445352,0.00165172282140702,-0.0028072369750589132
1.305223936,0.07428211718797684,-0.05573210492730141,9.797406196594238,0.0012468186905607581,0.0021233290899544954,-0.00302023789845407
1.3072256,0.0704418271780014,-0.05795643478631973,9.804426193237305,0.0003262920945417136,0.00019408413209021091,-0.0031957344617694616
1.309224704,0.06996886432170868,-0.05580760911107063,9.79791259765625,0.00035925133852288127,0.00032817074679769576,-0.00277114799246192
1.311226368,0.07589002698659897,-0.049720648676157,9.796547889709473,0.0004936264012940228,-0.0002750894636847079,0.0013706110185012221
1.313228544,0.08224476873874664,-0.04840688407421112,9.79550838470459,-0.00037913882988505065,0.0006387815228663385,0.004312850534915924
1.315231488,0.079267717897892,-0.042740464210510254,9.791305541992188,-0.000364393723430112,0.0009483452886343002,0.0017294491408392787
1.317232384,0.07698240876197815,-0.041031837463378906,9.794608116149902,-2.3285332645173185e-05,0.0012246831320226192,-0.0031364106107503176
1.319234816,0.07369846105575562,-0.042975619435310364,9.8014497756958,-0.0013109942665323615,0.0016654757782816887,-0.0018147986847907305
1.321237248,0.07353903353214264,-0.0457201711833477,9.812399864196777,-0.001501646125689149,0.0015392752829939127,0.0017471574246883392
1.3232404480000002,0.07037020474672318,-0.04881682246923447,9.80878734588623,0.00013099686475470662,0.0009312563925050199,0.0015672448789700866
1.3252413440000002,0.06983782351016998,-0.05371405556797981,9.807632446289062,0.0002588981296867132,0.0007506773108616471,0.002323064487427473
1.3272396800000001,0.072032131254673,-0.059041716158390045,9.810625076293945,-0.00014598741836380213,7.07018407410942e-05,-0.0008743422222323716
1.3292405760000001,0.07610496878623962,-0.06254502385854721,9.81147289276123,2.4170318283722736e-05,-0.0014061323599889874,0.001524050603620708
1.3312404480000002,0.07413922995328903,-0.0656546801328659,9.80775260925293,-0.0005138299893587828,-0.0019512278959155083,0.004569188226014376
1.3332433920000002,0.06823164969682693,-0.0676349550485611,9.804583549499512,-0.0008053732453845441,-0.0009574918658472598,0.0029755288269370794
1.3352435200000001,0.06862697750329971,-0.06791054457426071,9.800275802612305,-0.0005556975374929607,0.0009082311880774796,-0.0018282795790582895
1.337244928,0.06710302829742432,-0.06281420588493347,9.793859481811523,-0.0011375575559213758,0.0014543103752657771,-0.001039006165228784
1.3392455680000002,0.06544362753629684,-0.05835201218724251,9.78706169128418,-0.0007450401317328215,0.00028360975557006896,0.0013986737467348576
1.341248256,0.0649760365486145,-0.05401994287967682,9.78323745727539,0.0008954979130066931,0.00017547533207107335,-0.00011933100904570892
1.343248384,0.06795789301395416,-0.043738238513469696,9.782249450683594,0.0004523729148786515,0.0004985053674317896,8.311084820888937e-05
1.345252096,0.06884506344795227,-0.03853190690279007,9.771087646484375,-0.00012969475938007236,0.0010153079638257623,0.0012052247766405344
1.347249664,0.06967951357364655,-0.036929938942193985,9.75823974609375,-0.0004119162040296942,0.0005721293855458498,0.0024594853166490793
1.349249536,0.0732949748635292,-0.03703330084681511,9.758708000183105,-0.0005757476319558918,-0.0008328864350914955,-0.00034033169504255056
1.35124992,0.07443889230489731,-0.040462516248226166,9.763256072998047,0.0001934201136464253,-0.0014831272419542074,-0.0009586924570612609
1.3532544000000002,0.07302842289209366,-0.04738688841462135,9.77791690826416,0.0005005087587051094,0.0012346097500994802,0.0037320025730878115
1.35525376,0.07037806510925293,-0.05473595857620239,9.789534568786621,0.00016287028847727925,0.0019230119651183486,0.002548361197113991
1.3572544000000002,0.07113710790872574,-0.06150074675679207,9.7901611328125,-0.00019436641014181077,0.0015762768452987075,0.00031204803963191807
1.359255552,0.07049549371004105,-0.0633481964468956,9.787607192993164,-0.00041592997149564326,0.00039464858127757907,-4.986029671272263e-05
1.3612556800000002,0.07219324260950089,-0.05798525735735893,9.787727355957031,-0.0004106908163521439,-0.0013590528396889567,0.004713351372629404
1.3632591360000001,0.07166656106710434,-0.05674826726317406,9.790205001831055,0.0006145857041701674,-0.00035282690078020096,0.007877987809479237
1.3652582400000002,0.06509445607662201,-0.055701542645692825,9.795734405517578,0.0012304114643484354,0.0004447569663170725,0.008580071851611137
1.3672583680000001,0.059353429824113846,-0.0500837005674839,9.803003311157227,0.0013850753894075751,0.0007669766200706363,0.0050564054399728775
1.3693568,0.058725640177726746,-0.045397501438856125,9.809776306152344,0.0006174524896778166,0.0011226610513404012,-0.00011558453843463212
1.3713594880000002,0.06347246468067169,-0.04975765570998192,9.823843002319336,0.00012511435488704592,0.0007778874132782221,0.002366421977058053
1.37336064,0.06360823661088943,-0.05901973322033882,9.834150314331055,-0.0004125364648643881,0.0004948083078488708,0.0037918291054666042
1.3753612800000001,0.062299687415361404,-0.06015637144446373,9.832717895507812,-0.0002171763771912083,-0.00034428684739395976,0.0029260306619107723
1.3773616640000002,0.06114742532372475,-0.05549606308341026,9.82465648651123,0.0003075497515965253,-0.0009115688153542578,0.001743699423968792
1.3793625600000001,0.05347659811377525,-0.05620799958705902,9.816761016845703,0.0010104471584782004,-0.0010020026238635182,0.0022574292961508036
1.381362688,0.05216685310006142,-0.055501025170087814,9.807733535766602,0.001261601340956986,-0.00044606730807572603,-0.0003727646544575691
1.383363584,0.06127791479229927,-0.05185336619615555,9.802030563354492,0.00034816842526197433,-0.0001264238089788705,0.0016660415567457676
1.38536576,0.07359836995601654,-0.047434862703084946,9.798428535461426,-4.619241735781543e-05,-1.6037807654356584e-05,-0.0010145629057660699
1.387377152,0.08090994507074356,-0.04324788600206375,9.793752670288086,0.001057433895766735,0.0011542007559910417,-0.0013525940012186766
1.389379072,0.08546578139066696,-0.04256538301706314,9.797268867492676,0.001689425203949213,0.0019612095784395933,-0.0012389521580189466
1.3913822720000002,0.08477357029914856,-0.04147929325699806,9.803017616271973,0.0012549214297905564,0.002288608346134424,0.00015935819828882813
1.393383424,0.08345571905374527,-0.038286756724119186,9.80637264251709,-0.00022843407350592315,0.001234291703440249,0.0047997282817959785
1.3953866240000001,0.083964042365551,-0.04090888798236847,9.802095413208008,-0.0013566453708335757,-0.001580636715516448,0.001051323371939361
1.397386496,0.0764043927192688,-0.04719800502061844,9.799443244934082,-6.915169069543481e-05,-0.0024458684492856264,0.0012634863378480077
1.3993886720000002,0.07389149069786072,-0.049420326948165894,9.7908296585083,0.0003601244534365833,-0.000248163501964882,0.001741720479913056
1.401389824,0.07600445300340652,-0.05160878598690033,9.786855697631836,-8.859204535838217e-05,0.0013851015828549862,0.0019464348442852497
1.403390976,0.07312257587909698,-0.05409308150410652,9.78322696685791,0.00013851428229827434,0.00023737005540169775,-0.0007744230679236352
1.4053916160000002,0.0720038041472435,-0.052787553519010544,9.781050682067871,0.00034795416286215186,-0.0007840845501050353,-0.0016513573937118053
1.4073925120000002,0.07271379977464676,-0.055957939475774765,9.783714294433594,0.0009705500560812652,-0.0007539172074757516,0.002548895077779889
1.409394432,0.07698182761669159,-0.0555388405919075,9.781689643859863,0.0012116323923692107,-0.0011356946779415011,0.002096929121762514
1.4113937920000001,0.08051230013370514,-0.059215325862169266,9.778096199035645,0.0002596151898615062,0.0005027739098295569,0.0010678821709007025
1.413396224,0.08173619210720062,-0.0664079338312149,9.776697158813477,-0.00030513477395288646,0.0005478812381625175,0.002405826933681965
1.415395328,0.08160572499036789,-0.07428675889968872,9.77686595916748,-0.0007340544834733009,-0.0003449772484600544,0.007370418403297663
1.4173975040000002,0.07852330058813095,-0.07617900520563126,9.77526569366455,0.0010703577427193522,-0.00093073834432289,0.007638492621481419
1.4193984000000002,0.07351855933666229,-0.07450578361749649,9.778778076171875,-6.0521342675201595e-05,-0.0012180086923763156,0.004904699977487326
1.421399552,0.06821898370981216,-0.0716727077960968,9.785533905029297,-0.0014874370535835624,0.00019518102635629475,0.0038993493653833866
1.423401216,0.06789720058441162,-0.07229121029376984,9.78879451751709,-0.0009888061322271824,0.0014165856409817934,0.0005178560968488455
1.4254044160000001,0.06668979674577713,-0.07175961881875992,9.804278373718262,-5.935384615440853e-05,0.0008436182979494333,0.0006420742720365524
1.427402752,0.06535180658102036,-0.06914738565683365,9.822620391845703,-0.0002830617595463991,0.00010691291390685365,0.0005434118211269379
1.429402368,0.06520284712314606,-0.0683242604136467,9.828304290771484,0.0008724868530407548,0.00022887796512804925,-0.003571483539417386
1.431404544,0.06827519834041595,-0.0678195059299469,9.821550369262695,0.001118115265853703,-0.0005906664882786572,-0.0026411048602312803
1.4334056960000001,0.0708104819059372,-0.06278441846370697,9.81823444366455,-0.0012390862684696913,0.001036383444443345,0.0011105596786364913
1.4354068480000002,0.06911686807870865,-0.05930980667471886,9.80964183807373,-0.0020088108722120523,0.00013170599413570017,0.0036086970940232277
1.4374069760000001,0.06334791332483292,-0.06411340087652206,9.804969787597656,-0.000923058541957289,0.00033250058186240494,0.001947832410223782
1.439408896,0.05600469559431076,-0.07308120280504227,9.803829193115234,-0.0006576197920367122,0.0005100565031170845,-0.005786404944956303
1.44140928,0.04892386496067047,-0.07930032908916473,9.800942420959473,-0.0007295233081094921,0.00085099769057706,-0.0055544511415064335
1.443410944,0.04283931851387024,-0.08275959640741348,9.796854019165039,6.520837359857978e-06,0.0007075633620843291,0.004767080303281546
1.4454123520000002,0.04418020322918892,-0.08799755573272705,9.785086631774902,0.0003378664841875434,0.000762276176828891,0.0074603985995054245
1.4474145280000001,0.050001081079244614,-0.09415564686059952,9.769681930541992,0.00045016902731731534,0.0006275525665841997,-0.0008292152779176831
1.4494149120000002,0.056963272392749786,-0.09319856762886047,9.76478099822998,-0.00027251808205619454,0.001670661848038435,-0.005155464168637991
1.4514191360000002,0.05872424319386482,-0.09012676775455475,9.771703720092773,-1.0858070709218737e-05,0.001440022955648601,-0.004422629717737436
1.4534208000000002,0.0607471838593483,-0.08474931865930557,9.778000831604004,0.000638895551674068,0.0002926521992776543,0.0029755798168480396
1.4554209280000001,0.06790399551391602,-0.07560387998819351,9.78085708618164,0.00041455135215073824,-0.0007722674054093659,0.004428147338330746
1.4574208000000002,0.06920964270830154,-0.07300552725791931,9.78744888305664,0.000782932445872575,-0.0021670323330909014,-0.0006319757085293531
1.45942144,0.07117114216089249,-0.06527885794639587,9.794281959533691,0.0009602804784663022,-0.0012716499622911215,0.001140672480687499
1.461421568,0.07318057864904404,-0.056274112313985825,9.800251007080078,0.000957945070695132,0.0003213794552721083,0.0009347547311335802
1.463423232,0.07012853026390076,-0.05566606670618057,9.799214363098145,0.0017458756919950247,-0.000397477182559669,-0.0002405839622952044
1.465424384,0.0730392262339592,-0.06019609794020653,9.788910865783691,0.002890978939831257,-0.001964673399925232,-0.002181366318836808
1.467424768,0.07715024799108505,-0.06617338210344315,9.777417182922363,0.0016455643344670534,-0.0024398802779614925,-0.001410942291840911
1.4695078400000001,0.08007244765758514,-0.06662639230489731,9.775638580322266,0.0008541977149434388,-0.0023103782441467047,-0.0034283490385860205
1.471510528,0.08385761827230453,-0.06506804376840591,9.77997875213623,-2.935421434813179e-05,-0.0014988266630098224,-0.008083702065050602
1.47351168,0.08320382237434387,-0.06286516040563583,9.783926963806152,-0.0005769135896116495,-0.000936532043851912,0.0019968145061284304
1.475514368,0.0821099579334259,-0.05974055454134941,9.79475212097168,-0.001007314189337194,-0.0008904228452593088,0.002250165678560734
1.4775137280000001,0.08012300729751587,-0.056947045028209686,9.801824569702148,-0.0005405242554843426,-0.0011821741936728358,-0.0036047312896698713
1.479514368,0.07544325292110443,-0.05441480502486229,9.801417350769043,0.00018211643327958882,-0.00012391652853693813,-0.0020271537359803915
1.481517824,0.07148858904838562,-0.056319233030080795,9.79663372039795,-0.0005285879014991224,4.3572625145316124e-05,7.506935071432963e-05
1.4835187200000002,0.06987988203763962,-0.06025552749633789,9.786296844482422,-0.0004648810427170247,-0.00024779824889265,0.006341774947941303
1.4855191040000002,0.06897144019603729,-0.06310538202524185,9.778299331665039,-0.0007358966395258904,0.0006549209356307983,0.0013779272558167577
1.487517696,0.07363640516996384,-0.06574871391057968,9.775517463684082,-0.0016804354963824153,-0.0004011486889794469,0.003861349541693926
1.489518592,0.07983969897031784,-0.07006296515464783,9.77984619140625,-0.0009372035856358707,-0.0013170751044526696,0.0028511739801615477
1.4915187200000002,0.0829823911190033,-0.07292263954877853,9.779233932495117,-0.0003096846048720181,-0.0015831609489396214,-0.00289158895611763
1.493519872,0.07736844569444656,-0.07746228575706482,9.784109115600586,0.0006545893265865743,-0.00103260378818959,-0.0009720488451421261
1.4955217920000001,0.07482407987117767,-0.0775628387928009,9.79028034210205,0.001071279402822256,-0.0005365153774619102,0.004856175743043423
1.497523712,0.07530449330806732,-0.07544892281293869,9.799351692199707,0.0005360260838642716,-0.0009260438964702189,0.00013307509652804583
1.4995251200000002,0.07501138001680374,-0.06999026238918304,9.80272102355957,0.00016227392188739032,-0.0004667437169700861,-0.0024287134874612093
1.50152704,0.07638537883758545,-0.06604883074760437,9.80217456817627,6.515898712677881e-05,-0.0013621310936287045,-0.0003463128232397139
1.503527424,0.07615838944911957,-0.06284306198358536,9.803230285644531,-0.00027788456645794213,-0.0017160832649096847,0.002471083076670766
1.505530368,0.07575923949480057,-0.06107315048575401,9.803375244140625,-0.0011564537417143583,-0.0026289070956408978,-0.001063461764715612
1.507532032,0.07602857053279877,-0.06096212565898895,9.79921817779541,-0.00106499542016536,0.00014163517334964126,0.0013780768495053053
1.50953088,0.07958269864320755,-0.06119604408740997,9.793747901916504,-0.0008667429792694747,0.0024634816218167543,0.0016113367164507508
1.5115328000000001,0.08308909088373184,-0.0590226985514164,9.786718368530273,-0.0002933354116976261,0.0020497506484389305,-0.0027669223491102457
1.513533696,0.08527741581201553,-0.05822034180164337,9.785955429077148,0.0008786339312791824,-0.0010853518033400178,0.001471728552132845
1.515535104,0.0894227921962738,-0.058870505541563034,9.790865898132324,0.0005097888642922044,-0.0015985580394044518,0.003702651709318161
1.517534976,0.0855771005153656,-0.059684135019779205,9.78431510925293,0.0008968232432380319,-0.0006089164526201785,0.002128724241629243
1.5195356160000002,0.08694484084844589,-0.06803430616855621,9.77394962310791,0.0004039861960336566,-0.0015291633317247033,-7.389781239908189e-05
1.5215377920000002,0.08753199875354767,-0.07173988223075867,9.762681007385254,0.0003847437328658998,-0.0012899553403258324,0.0017364047234877944
1.523541504,0.08400700241327286,-0.07282132655382156,9.756415367126465,0.0013091907603666186,-0.0015870011411607265,0.0012279445072636008
1.5255411200000002,0.07909192889928818,-0.06930352747440338,9.760822296142578,0.0004319665895309299,-0.0008518110262230039,-0.0017042499966919422
1.5275420160000002,0.07288940995931625,-0.06431473791599274,9.767435073852539,-0.0009783566929399967,0.0017611486837267876,0.00016095110913738608
1.5295429120000001,0.06656892597675323,-0.05957477167248726,9.773307800292969,-0.0024012678768485785,0.002458720002323389,0.004590690601617098
1.5315445760000002,0.0643547773361206,-0.055051691830158234,9.772369384765625,-0.0016362435417249799,0.002216838765889406,0.003414125181734562
1.533545216,0.06784920394420624,-0.0587557852268219,9.776406288146973,5.082703864900395e-05,0.0021088505163788795,0.000512002210598439
1.535547648,0.0740036591887474,-0.06733586639165878,9.78427791595459,0.0015459890710189939,0.0005119754932820797,-0.0011187271447852254
1.537549056,0.07713380455970764,-0.07207123190164566,9.786036491394043,0.001618258305825293,-0.0012268743012100458,-0.003969647455960512
1.5395509760000001,0.07777584344148636,-0.0738983303308487,9.784317016601562,0.0011339412303641438,-0.0003274054906796664,-0.002878152532503009
1.541552896,0.07748308032751083,-0.07366438210010529,9.785652160644531,0.0009574165451340377,0.000405962549848482,-0.0016585917910560966
1.54355072,0.07532975822687149,-0.07141844928264618,9.7852201461792,0.0006948233349248767,-0.00010275183740304783,-0.002062871353700757
1.545551616,0.0717521607875824,-0.06684322655200958,9.792516708374023,0.0004566142742987722,-0.0006919309962540865,-0.0009700721711851656
1.5475530240000002,0.0679132416844368,-0.06564798206090927,9.800333976745605,6.397804827429354e-05,-5.5801643611630425e-05,0.002589106559753418
1.549553664,0.06523551791906357,-0.06940155476331711,9.80102825164795,-0.0008404242107644677,0.0011106872698292136,0.0012654662132263184
1.5515548160000001,0.06380180269479752,-0.07464616000652313,9.799233436584473,-0.0013592476025223732,0.00034919334575533867,0.001387999509461224
1.553554432,0.06396999955177307,-0.07743509858846664,9.793646812438965,-0.0010472869034856558,-0.0004543897230178118,0.0025558210909366608
1.55555584,0.06790751963853836,-0.07549406588077545,9.792474746704102,-0.0008157053380273283,-0.001045572105795145,0.0060559469275176525
1.5575539200000001,0.06965072453022003,-0.07274015992879868,9.79411792755127,-0.0002661365724634379,-0.00043556845048442483,0.0027098304126411676
1.5595563520000002,0.07297155261039734,-0.07014624774456024,9.788639068603516,0.0003804858715739101,0.0002606881607789546,0.001709243399091065
1.561556736,0.07630261033773422,-0.06628253310918808,9.786168098449707,0.0005812780582346022,0.0006176023744046688,0.0006544440984725952
1.563558656,0.07814763486385345,-0.06070686876773834,9.785107612609863,0.000825938768684864,0.0010625264840200543,0.0005659459857270122
1.5655598080000002,0.07872587442398071,-0.05677336826920509,9.783164978027344,0.0005829226574860513,0.0009652051376178861,-0.0022379118017852306
1.567725056,0.08062517642974854,-0.05642092600464821,9.78974723815918,0.0002502364222891629,0.0007664307486265898,-0.0018454794771969318
1.56972544,0.08398635685443878,-0.05062570050358772,9.792702674865723,-0.0005931127816438675,0.0001680652640061453,0.0002135826798621565
1.571725056,0.08355629444122314,-0.04705226048827171,9.795766830444336,-0.0008118397672660649,0.000682972779031843,-0.0005044139688834548
1.57372672,0.08289296180009842,-0.048885371536016464,9.800558090209961,-0.00030139039154164493,0.0007462561479769647,0.001208899891935289
1.5757294080000002,0.07883147895336151,-0.04532763734459877,9.799123764038086,-0.00019533728482201695,0.0005422660615295172,8.060194522840902e-05
1.5777310720000002,0.07386000454425812,-0.03996492177248001,9.795269966125488,4.928944326820783e-05,0.00032367618405260146,0.00863222312182188
1.579731712,0.07042129337787628,-0.03762771189212799,9.794437408447266,-0.0015146462246775627,-0.0004198426613584161,0.007307989988476038
1.5817328640000001,0.0714808776974678,-0.04453125596046448,9.794039726257324,-0.0011028917506337166,-0.00046598914195783436,0.006151648238301277
1.583734784,0.0687214657664299,-0.0569513738155365,9.789933204650879,0.00025572392041794956,4.348182756075403e-06,0.002488555386662483
1.5857341440000001,0.06616358458995819,-0.0657896175980568,9.78960132598877,-0.0005166056216694415,0.0006514658452942967,0.0026048694271594286
1.58773376,0.06172206625342369,-0.06891261786222458,9.786431312561035,0.000465933553641662,0.00012232585868332535,0.00014444593398366123
1.5897361920000002,0.05585535615682602,-0.06782109290361404,9.788732528686523,0.000925233936868608,0.00015572966367471963,0.0010937345214188099
1.5917365760000002,0.05817914009094238,-0.06871331483125687,9.790610313415527,0.0002240313042420894,0.0005616301787085831,0.002396327443420887
1.593739008,0.06421379745006561,-0.06887166947126389,9.791484832763672,0.0010812792461365461,-0.00018742308020591736,0.0014896391658112407
1.5957404160000002,0.07212641090154648,-0.07147250324487686,9.795795440673828,0.0012135113356634974,-0.0019946931861341,0.0013467840617522597
1.597739776,0.08018934726715088,-0.07560084015130997,9.80195140838623,0.00036933101364411414,-0.002304408000782132,0.0075896685011684895
1.59974272,0.08153834193944931,-0.07504406571388245,9.812433242797852,0.001419369480572641,-0.0011413316242396832,0.0043152254074811935
1.601744896,0.07748575508594513,-0.07129133492708206,9.818312644958496,0.0015532891266047955,-0.0004468934203032404,0.0059953234158456326
1.603746048,0.06559690833091736,-0.07315143197774887,9.821113586425781,0.00023077160585671663,-0.0006451059598475695,0.0013987368438392878
1.605748224,0.0596318356692791,-0.0816851556301117,9.82395076751709,0.0010045872768387198,0.0018466166220605373,0.00037415436236187816
1.6077488640000002,0.06333696097135544,-0.08020953834056854,9.826335906982422,-6.050066804164089e-05,0.0017417460912838578,0.0024340476375073195
1.609748736,0.07014443725347519,-0.07674466818571091,9.834460258483887,-0.0017303309869021177,0.0016649937024340034,0.006318870931863785
1.6117506560000001,0.08075862377882004,-0.0728832483291626,9.829546928405762,0.0001853175781434402,0.0016631021862849593,0.004775249399244785
1.6137518080000002,0.08862166851758957,-0.0736650675535202,9.818154335021973,0.0018560137832537293,-0.0005626265192404389,0.0006711137830279768
1.615751936,0.09676292538642883,-0.07447562366724014,9.811247825622559,0.0011075260117650032,-0.00207425095140934,0.0019247124437242746
1.6177536000000001,0.10483434051275253,-0.07448219507932663,9.808388710021973,0.0008566146134398878,-0.0025306828320026398,0.007272227667272091
1.6197552640000001,0.1118658035993576,-0.07415230572223663,9.807577133178711,0.001428069663234055,-0.0021736344788223505,0.015379693359136581
1.6217551360000002,0.11229617148637772,-0.0708397924900055,9.804838180541992,0.0009257324854843318,0.0012668140698224306,0.012558309361338615
1.623755776,0.10860703885555267,-0.06598246842622757,9.800923347473145,0.0010233267676085234,0.0019097572658210993,0.0058869714848697186
1.625757952,0.10366010665893555,-0.06108853965997696,9.797008514404297,0.0021684831008315086,0.0029161751735955477,0.00719085056334734
1.62775808,0.09848572313785553,-0.061045091599226,9.789875984191895,0.0011927487794309855,0.0020733214914798737,0.00994226522743702
1.62975872,0.0883130207657814,-0.05769035220146179,9.792724609375,-0.00014327360258903354,0.0005326312966644764,0.009735314175486565
1.631763968,0.08482831716537476,-0.061451125890016556,9.79571533203125,-4.989967055735178e-05,0.0003059868759009987,0.0019111206056550145
1.633761792,0.08594287931919098,-0.07151629775762558,9.803130149841309,0.001023202552460134,0.0004720808065030724,-0.0055342479608953
1.635762688,0.08403211086988449,-0.07958883792161942,9.80858039855957,-2.9541322874138132e-05,-0.00033993576653301716,-0.001267003477551043
1.6377653760000002,0.08038744330406189,-0.08258213847875595,9.819981575012207,-0.000607380410656333,-0.000596995756495744,0.0014051093021407723
1.6397670400000002,0.08073535561561584,-0.08018680661916733,9.826480865478516,-0.0008409956935793161,0.0004906809190288186,0.00017169104830827564
1.64176896,0.07663470506668091,-0.07885853201150894,9.828509330749512,0.0012750596506521106,-0.0002478419919498265,-0.0003739895473700017
1.643771136,0.07144566625356674,-0.0761006698012352,9.825053215026855,0.0014898101799190044,-0.00048550020437687635,0.0037291680928319693
1.64577152,0.06692839413881302,-0.07261504977941513,9.818907737731934,0.0011042215628549457,0.00017998000839725137,0.010499304160475731
1.647773184,0.06325727701187134,-0.06926212459802628,9.812407493591309,0.00045248004607856274,0.0007137278444133699,0.01442447304725647
1.6497738240000002,0.060399144887924194,-0.0683068111538887,9.813783645629883,-0.0003820204292424023,0.00017568566545378417,0.013898957520723343
1.651775232,0.06044990196824074,-0.06894836574792862,9.818770408630371,0.0001552662142785266,-0.0010588200530037284,0.002905948320403695
1.653776128,0.06477068364620209,-0.06729275733232498,9.8150053024292,1.3635111827170476e-05,-0.00020587327890098095,0.00014788733096793294
1.655779072,0.06793434917926788,-0.06657391041517258,9.814079284667969,0.0008099502883851528,0.0016973968595266342,0.002955893985927105
1.65777792,0.06830070912837982,-0.06789270043373108,9.816361427307129,0.0010717094410210848,0.0013401382602751255,0.005345231853425503
1.659779072,0.06084863096475601,-0.06629051268100739,9.818734169006348,0.0008255130378529429,-0.00020702829351648688,0.00022778766287956387
1.6617827840000001,0.05590995401144028,-0.06430328637361526,9.815495491027832,0.0005849575973115861,-0.0005104633746668696,0.005743134766817093
1.663786752,0.0516352578997612,-0.06741831451654434,9.822394371032715,0.0007165281567722559,-0.0006197290495038033,0.0075294566340744495
1.6657886720000001,0.049714118242263794,-0.06950462609529495,9.820850372314453,-0.0002415588533040136,-0.001213559415191412,0.0021320378873497248
1.6677898240000002,0.052280861884355545,-0.0700666606426239,9.8154296875,-0.0009647139813750982,-0.0016501074424013495,-0.005378668196499348
1.66992512,0.0557674914598465,-0.07291039079427719,9.805843353271484,-0.0009126962395384908,-0.0014789971755817533,-0.005367214325815439
1.671928576,0.06307446211576462,-0.07971593737602234,9.806747436523438,-0.0009745732531882823,-0.00047143790288828313,-0.0002827314310707152
1.6739299840000001,0.06697425246238708,-0.07853943854570389,9.814031600952148,-0.0016001163749024272,-0.0005322112701833248,0.0016645976575091481
1.6759316480000002,0.07330254465341568,-0.07427167147397995,9.818316459655762,-0.0011453870683908463,-4.268802877049893e-05,0.004550398793071508
1.6779312640000001,0.08008474111557007,-0.06594046205282211,9.808326721191406,-0.0003468267386779189,-0.00010891145211644471,0.005941521376371384
1.6799334400000001,0.08439531177282333,-0.05360069125890732,9.80612850189209,-0.00054429896408692,0.0008648603688925505,0.0019445793004706502
1.681934848,0.08800610899925232,-0.047225844115018845,9.80527400970459,8.385922410525382e-05,0.001267327112145722,0.0019335910910740495
1.683936,0.0934838354587555,-0.04764524847269058,9.80449104309082,0.001127599272876978,0.00017218968423549086,0.004020556341856718
1.685940224,0.09968018531799316,-0.04855761677026749,9.808145523071289,0.000669043161906302,9.056011913344264e-05,0.0024736591149121523
1.68793984,0.10323148220777512,-0.052099134773015976,9.816337585449219,0.0005555046955123544,0.0004157924558967352,-0.0029690926894545555
1.689940224,0.10078109800815582,-0.057247359305620193,9.820943832397461,0.0002155508700525388,0.0002845372073352337,-0.0023777144961059093
1.6919408640000002,0.0961320623755455,-0.062421608716249466,9.82347583770752,0.0006671752198599279,-0.00038430982385762036,0.006329726427793503
1.6939430400000002,0.09114734828472137,-0.06695875525474548,9.824825286865234,0.0004836767911911011,-5.8495046687312424e-05,0.013795405626296997
